,Subject,Age,Sex,Block,blockType,practice,Trial,RSVP_String_01,RSVP_String_02,RSVP_String_03,RSVP_String_04,RSVP_String_05,RSVP_String_06,RSVP_String_07,RSVP_String_08,RSVP_String_09,RSVP_String_10,RSVP_String_11,RSVP_String_12,RSVP_String_13,RSVP_String_14,RSVP_String_15,RSVP_String_16,RSVP_String_17,RSVP_String_18,T1Place,T1side,T2Place,T2_RESP,T2_RT,T1_CRESP,T1_RESP,T1_RT
0,1,23,female,2,DIGIT,1,1,4,3,3,3,5,7,5,5,3,9,6,4,6,9,7,3,5,3,9,left,14,9,665,x,z,334
1,1,23,female,2,DIGIT,1,2,9,3,7,7,7,5,9,7,7,5,4,6,8,2,9,3,2,7,9,left,17,2,665,x,z,334
2,1,23,female,2,DIGIT,1,3,7,6,8,7,3,3,7,8,7,4,6,6,7,8,6,7,7,7,11,left,12,6,665,x,z,334
3,1,23,female,2,DIGIT,1,4,3,9,3,5,9,7,9,9,2,3,9,8,2,2,8,2,7,3,7,right,10,5,665,x,x,334
4,1,23,female,2,DIGIT,1,5,9,7,9,3,3,7,9,3,9,9,2,4,4,2,5,6,7,5,11,left,12,4,665,x,z,334
5,1,23,female,2,DIGIT,1,6,3,9,5,7,7,5,2,3,4,3,3,9,4,8,8,5,2,3,7,right,11,2,665,x,x,334
6,1,23,female,2,DIGIT,1,7,9,2,3,3,9,4,7,7,9,5,6,9,7,6,9,8,9,7,7,right,14,6,665,x,x,334
7,1,23,female,2,DIGIT,1,8,3,7,3,3,9,5,3,9,7,6,3,7,4,8,7,6,9,7,9,right,12,7,665,x,x,334
8,1,23,female,2,DIGIT,1,9,7,6,3,7,9,7,9,2,6,8,7,4,4,4,9,9,3,7,3,left,4,6,665,x,z,334
9,1,23,female,2,DIGIT,1,10,9,7,5,9,7,3,5,7,3,3,5,6,8,6,9,7,5,7,10,right,18,7,665,x,x,334
10,1,23,female,2,DIGIT,1,11,7,3,5,9,5,9,3,5,9,9,6,2,8,6,2,6,9,9,5,right,8,5,665,x,x,334
11,1,23,female,2,DIGIT,1,12,5,5,5,9,3,5,5,9,5,8,6,3,7,8,6,3,7,5,5,right,10,8,665,x,x,334
12,1,23,female,2,DIGIT,1,13,5,5,9,7,9,6,3,7,7,2,4,9,6,9,4,4,9,8,5,left,9,7,665,x,z,334
13,1,23,female,2,DIGIT,1,14,7,9,7,7,6,7,4,9,3,9,2,8,5,7,3,3,3,5,7,left,14,7,665,x,z,334
14,1,23,female,2,DIGIT,1,15,3,9,9,7,3,3,5,5,9,7,9,2,7,7,9,7,2,2,11,left,13,7,665,x,z,334
15,1,23,female,2,DIGIT,1,16,3,9,9,5,5,5,5,3,9,6,9,6,4,2,2,2,3,3,5,left,12,6,665,x,z,334
16,1,23,female,2,DIGIT,1,17,8,7,5,7,7,9,5,5,3,7,8,4,7,5,7,3,6,7,11,right,13,2,665,x,x,334
17,1,23,female,2,DIGIT,1,18,7,9,9,9,3,9,9,9,6,2,9,8,7,6,9,5,9,3,7,left,13,7,665,x,z,334
18,1,23,female,2,DIGIT,1,19,5,3,7,9,9,3,5,3,5,4,6,9,8,8,9,8,5,4,5,left,12,6,665,x,z,334
19,1,23,female,2,DIGIT,1,20,7,9,9,7,7,7,3,7,5,9,7,7,2,3,3,9,9,5,9,left,14,3,665,x,z,334
20,1,23,female,2,DIGIT,1,21,9,3,5,5,7,9,5,4,9,7,5,6,4,4,9,4,9,7,5,right,11,5,665,x,x,334
21,1,23,female,2,DIGIT,1,22,8,9,9,3,7,7,2,5,5,5,3,6,6,3,8,3,5,8,5,right,7,2,665,x,x,334
22,1,23,female,2,DIGIT,1,23,3,5,7,7,3,5,9,3,6,9,3,7,8,8,9,5,5,7,7,left,12,7,665,x,z,334
23,1,23,female,2,DIGIT,1,24,7,6,2,5,5,2,5,5,4,5,6,6,8,5,3,9,8,5,7,left,15,3,665,x,z,334
24,1,23,female,2,DIGIT,1,25,5,5,9,5,6,9,7,5,9,5,9,3,8,4,3,5,8,5,7,right,12,3,665,x,x,334
25,1,23,female,2,DIGIT,1,26,5,9,9,7,3,5,7,2,5,6,3,4,8,6,5,6,7,3,3,left,10,5,665,x,z,334
26,1,23,female,2,DIGIT,1,27,5,5,3,9,3,7,7,3,2,6,9,5,8,7,2,5,9,9,7,right,14,7,665,x,x,334
27,1,23,female,2,DIGIT,1,28,7,5,5,6,9,9,5,5,8,3,4,6,8,9,5,9,9,9,7,right,15,5,665,x,x,334
28,1,23,female,2,DIGIT,1,29,6,5,9,9,5,7,7,9,8,4,9,8,5,8,5,8,3,3,9,left,17,3,665,x,z,334
29,1,23,female,2,DIGIT,1,30,7,3,3,5,5,5,5,5,4,9,2,4,4,6,7,7,7,9,3,right,10,9,665,x,x,334
30,1,23,female,2,DIGIT,1,31,9,9,3,3,9,3,9,9,2,7,6,7,8,7,8,6,7,7,5,left,6,3,665,x,z,334
31,1,23,female,2,DIGIT,1,32,5,3,8,5,7,8,7,9,5,8,8,9,2,8,7,9,9,9,7,left,8,3,665,x,z,334
32,1,23,female,2,DIGIT,1,33,3,9,7,3,3,5,7,7,3,7,2,6,5,8,9,5,7,7,5,right,10,7,665,x,x,334
33,1,23,female,2,DIGIT,1,34,7,5,5,7,5,5,7,3,8,5,9,2,4,6,2,3,9,3,3,left,7,7,665,x,z,334
34,1,23,female,2,DIGIT,1,35,9,3,7,7,9,2,3,2,2,4,4,7,4,4,5,2,3,5,3,left,5,9,665,x,z,334
35,1,23,female,2,DIGIT,1,36,5,5,7,5,5,3,3,3,3,9,6,9,3,9,3,3,9,7,7,right,9,3,665,x,x,334
36,1,23,female,2,DIGIT,1,37,3,5,5,7,3,2,7,6,3,7,2,9,7,7,9,5,5,9,11,left,18,9,665,x,z,334
37,1,23,female,2,DIGIT,1,38,7,3,9,3,9,5,3,5,7,4,6,3,3,2,4,3,3,3,11,right,14,7,665,x,x,334
38,1,23,female,2,DIGIT,1,39,9,5,9,5,3,3,9,2,2,4,7,8,4,4,2,8,8,7,7,right,13,8,665,x,x,334
39,1,23,female,2,DIGIT,1,40,2,9,7,7,3,3,5,3,3,6,3,8,4,2,5,5,9,9,11,left,13,4,665,x,z,334
40,1,23,female,2,DIGIT,1,41,4,5,9,5,3,5,9,3,9,6,2,6,5,7,9,6,3,3,11,right,18,3,665,x,x,334
41,1,23,female,2,DIGIT,1,42,5,3,7,3,9,9,5,9,6,8,6,4,6,8,3,2,9,7,5,right,6,9,665,x,x,334
42,1,23,female,2,DIGIT,1,43,3,7,5,5,9,9,7,5,4,9,3,2,7,2,7,7,3,4,7,right,12,2,665,x,x,334
43,1,23,female,2,DIGIT,1,44,7,7,6,9,3,3,2,4,7,5,9,6,9,9,9,9,3,3,3,left,10,5,665,x,z,334
44,1,23,female,2,DIGIT,1,45,7,2,5,6,5,7,9,3,9,2,2,4,2,9,6,3,3,5,7,left,9,9,665,x,z,334
45,1,23,female,2,DIGIT,1,46,9,5,3,5,8,2,5,7,5,9,3,2,3,4,5,8,2,5,9,right,11,8,665,x,x,334
46,1,23,female,2,DIGIT,1,47,7,3,3,5,5,9,9,5,8,7,4,3,2,8,3,9,7,7,7,left,9,8,665,x,z,334
47,1,23,female,2,DIGIT,1,48,3,2,5,3,7,7,3,4,5,5,6,8,4,3,4,3,3,7,11,right,13,4,665,x,x,334
48,1,23,female,2,DIGIT,1,49,8,3,7,7,5,7,7,4,8,6,2,4,5,4,3,7,3,7,7,right,10,7,665,x,x,334
49,1,23,female,2,DIGIT,1,50,3,9,9,9,9,5,7,9,3,7,9,8,4,6,4,6,7,7,9,right,15,4,665,x,x,334
50,1,23,female,2,DIGIT,1,51,5,4,9,7,9,8,7,3,5,6,4,4,3,2,2,9,4,9,7,right,15,2,665,x,x,334
51,1,23,female,2,DIGIT,1,52,5,7,9,5,9,7,5,7,4,5,4,2,4,7,3,8,9,5,7,right,12,4,665,x,x,334
52,1,23,female,2,DIGIT,1,53,3,3,3,7,7,9,3,6,7,9,8,4,4,3,5,4,3,2,9,left,17,3,665,x,z,334
53,1,23,female,2,DIGIT,1,54,7,5,9,5,9,7,9,7,9,9,7,2,2,3,6,6,9,7,11,left,12,7,665,x,z,334
54,1,23,female,2,DIGIT,1,55,5,5,5,7,7,7,7,8,8,9,8,5,8,7,8,3,5,5,3,left,8,3,665,x,z,334
55,1,23,female,2,DIGIT,1,56,9,9,9,8,3,3,9,5,8,5,6,8,8,9,3,5,9,5,3,right,10,5,665,x,x,334
56,1,23,female,2,DIGIT,1,57,9,3,7,3,9,5,9,3,5,5,8,2,4,4,7,7,5,7,7,right,13,4,665,x,x,334
57,1,23,female,2,DIGIT,1,58,5,5,7,6,7,7,5,9,8,2,9,6,5,6,2,9,3,3,9,right,17,3,665,x,x,334
58,1,23,female,2,DIGIT,1,59,7,9,3,4,7,9,7,7,5,5,4,8,8,7,3,5,4,7,3,left,9,5,665,x,z,334
59,1,23,female,2,DIGIT,1,60,6,3,3,7,5,7,9,3,5,7,2,8,8,9,9,3,3,3,3,left,4,7,665,x,z,334
60,1,23,female,2,DIGIT,1,61,7,7,3,5,9,9,7,3,9,9,9,7,8,2,5,4,8,4,3,right,9,9,665,x,x,334
61,1,23,female,2,DIGIT,1,62,9,9,5,9,5,7,3,9,7,3,5,7,2,2,9,5,7,7,3,left,11,5,665,x,z,334
62,1,23,female,2,DIGIT,1,63,2,5,2,7,3,9,9,9,2,7,3,2,6,6,9,2,7,5,7,left,15,9,665,x,z,334
63,1,23,female,2,DIGIT,1,64,7,5,9,3,7,3,7,7,7,4,4,8,2,4,7,3,7,3,7,left,12,8,665,x,z,334
64,1,23,female,2,DIGIT,1,65,4,5,3,8,5,7,5,7,2,9,4,6,6,4,7,7,3,5,9,left,11,4,665,x,z,334
65,1,23,female,2,DIGIT,1,66,7,9,9,7,3,3,3,8,3,9,6,3,2,2,9,3,7,4,7,left,14,2,665,x,z,334
66,1,23,female,2,DIGIT,1,67,3,3,4,9,7,3,5,7,5,9,3,4,3,8,5,4,7,7,7,left,15,5,665,x,z,334
67,1,23,female,2,DIGIT,1,68,5,9,5,5,9,7,7,5,7,8,7,4,8,9,4,4,9,5,7,left,10,8,665,x,z,334
68,1,23,female,2,DIGIT,1,69,9,7,5,7,3,3,3,3,9,5,2,4,8,6,9,4,9,5,5,left,6,3,665,x,z,334
69,1,23,female,2,DIGIT,1,70,7,5,3,8,6,5,7,5,8,5,6,8,2,6,9,7,9,7,11,left,15,9,665,x,z,334
70,1,23,female,2,DIGIT,1,71,7,7,3,5,5,9,9,7,3,3,2,9,5,6,3,5,9,3,7,right,14,6,665,x,x,334
71,1,23,female,2,DIGIT,1,72,3,7,5,5,8,9,5,5,2,5,2,4,8,8,2,6,7,8,7,right,14,8,665,x,x,334
72,1,23,female,2,DIGIT,1,73,9,5,7,3,4,5,7,5,5,8,4,2,7,5,4,3,5,3,9,left,11,4,665,x,z,334
73,1,23,female,2,DIGIT,1,74,3,3,5,7,7,3,5,3,7,6,6,6,8,4,4,2,9,3,9,right,11,6,665,x,x,334
74,1,23,female,2,DIGIT,1,75,9,3,3,7,2,2,9,5,5,7,2,9,8,2,3,9,7,5,9,right,15,3,665,x,x,334
75,1,23,female,2,DIGIT,1,76,9,8,6,5,9,5,5,6,7,3,8,8,9,3,6,9,7,3,5,right,7,5,665,x,x,334
76,1,23,female,2,DIGIT,1,77,7,5,7,9,4,5,7,7,9,2,6,6,5,7,9,5,9,5,9,right,10,2,665,x,x,334
77,1,23,female,2,DIGIT,1,78,9,9,6,7,9,7,5,3,7,4,4,5,2,5,7,9,9,7,9,left,10,4,665,x,z,334
78,1,23,female,2,DIGIT,1,79,9,8,3,7,9,7,3,5,2,8,9,4,5,8,7,5,3,9,11,right,14,8,665,x,x,334
79,1,23,female,2,DIGIT,1,80,3,3,5,5,7,9,7,3,5,6,9,3,8,4,4,4,7,9,9,right,16,4,665,x,x,334
80,1,23,female,2,DIGIT,1,81,7,4,4,8,5,3,5,4,5,8,3,6,8,3,7,7,7,7,3,right,11,3,665,x,x,334
81,1,23,female,2,DIGIT,1,82,3,3,5,9,7,6,3,9,5,3,2,9,2,2,8,5,3,3,11,right,12,9,665,x,x,334
82,1,23,female,2,DIGIT,1,83,4,9,5,5,5,3,7,5,7,8,7,8,6,3,5,8,6,9,3,right,9,7,665,x,x,334
83,1,23,female,2,DIGIT,1,84,3,5,3,7,7,9,9,9,9,7,7,6,8,2,9,6,3,4,3,left,11,7,665,x,z,334
84,1,23,female,2,DIGIT,1,85,3,4,7,5,9,5,7,5,6,2,8,6,7,9,7,9,5,9,7,left,11,8,665,x,z,334
85,1,23,female,2,DIGIT,1,86,3,5,7,9,7,3,5,3,3,5,6,6,4,3,5,9,5,5,3,right,4,9,665,x,x,334
86,1,23,female,2,DIGIT,1,87,9,7,9,3,5,9,7,3,4,3,2,5,5,2,5,5,5,7,9,left,13,5,665,x,z,334
87,1,23,female,2,DIGIT,1,88,7,3,3,5,9,6,9,9,3,3,8,6,5,4,4,8,5,3,7,right,10,4,665,x,x,334
88,1,23,female,2,DIGIT,1,89,5,9,5,6,8,9,9,3,8,5,8,4,8,9,6,5,5,2,5,left,9,8,665,x,z,334
89,1,23,female,2,DIGIT,1,90,6,7,7,5,3,7,7,5,3,7,8,4,6,5,9,7,5,7,5,left,7,7,665,x,z,334
90,1,23,female,2,DIGIT,1,91,2,3,7,3,3,6,9,6,5,6,2,8,8,3,9,7,7,5,7,right,11,2,665,x,x,334
91,1,23,female,2,DIGIT,1,92,5,2,9,9,9,3,7,9,5,5,6,8,5,4,3,9,2,5,7,left,8,9,665,x,z,334
92,1,23,female,2,DIGIT,1,93,9,2,9,5,9,7,5,3,8,7,4,5,4,6,9,2,7,9,9,right,11,4,665,x,x,334
93,1,23,female,2,DIGIT,1,94,9,3,7,5,5,3,9,3,2,9,8,7,4,9,4,5,3,4,7,right,11,8,665,x,x,334
94,1,23,female,2,DIGIT,1,95,7,9,3,4,5,7,9,5,9,7,7,4,6,2,9,6,7,5,9,right,10,7,665,x,x,334
95,1,23,female,2,DIGIT,1,96,5,7,7,7,7,9,7,3,8,6,3,5,2,6,3,3,3,7,9,right,14,6,665,x,x,334
96,1,23,female,2,DIGIT,1,97,7,4,7,5,9,9,7,3,4,4,9,4,6,9,9,2,8,9,3,right,9,4,665,x,x,334
97,1,23,female,2,DIGIT,1,98,3,3,5,7,7,3,3,4,9,5,2,3,9,5,4,8,3,9,7,left,12,3,665,x,z,334
98,1,23,female,2,DIGIT,1,99,3,7,9,3,3,9,3,9,9,4,2,8,9,8,3,2,5,9,7,right,12,2,665,x,x,334
99,1,23,female,2,DIGIT,1,100,3,5,3,4,7,6,7,2,5,5,7,5,9,4,3,7,5,9,7,left,8,2,665,x,z,334
100,1,23,female,2,DIGIT,1,101,7,7,3,4,6,3,3,3,7,4,6,9,8,3,6,2,2,7,3,right,7,3,665,x,x,334
101,1,23,female,2,DIGIT,1,102,3,5,9,9,5,3,7,5,3,5,7,2,8,2,9,6,2,4,11,left,13,8,665,x,z,334
102,1,23,female,2,DIGIT,1,103,9,3,5,7,3,3,3,3,8,5,6,2,8,4,8,8,2,7,3,right,10,5,665,x,x,334
103,1,23,female,2,DIGIT,1,104,7,7,5,8,9,3,9,5,5,3,6,8,7,9,6,8,3,7,3,left,7,9,665,x,z,334
104,1,23,female,2,DIGIT,1,105,3,7,7,5,5,9,9,2,2,7,6,9,2,9,2,8,5,5,5,left,10,7,665,x,z,334
105,1,23,female,2,DIGIT,1,106,5,3,5,9,5,7,9,7,3,3,8,8,9,5,3,9,2,9,7,right,10,3,665,x,x,334
106,1,23,female,2,DIGIT,1,107,6,3,7,9,9,9,3,9,5,6,2,9,2,8,5,5,6,9,9,right,17,6,665,x,x,334
107,1,23,female,2,DIGIT,1,108,9,7,5,3,9,3,5,3,3,6,3,5,4,2,7,9,5,8,7,left,13,4,665,x,z,334
108,1,23,female,2,DIGIT,1,109,9,5,7,7,9,9,9,3,2,7,6,8,8,2,3,5,3,9,5,left,10,2,665,x,z,334
109,1,23,female,2,DIGIT,1,110,9,7,6,9,7,9,5,5,3,4,6,2,5,7,2,5,7,5,5,left,9,3,665,x,z,334
110,1,23,female,2,DIGIT,1,111,3,7,3,8,6,9,5,9,4,7,6,3,5,2,8,7,5,3,9,right,11,6,665,x,x,334
111,1,23,female,2,DIGIT,1,112,3,7,3,3,7,9,5,6,7,5,4,5,5,2,8,3,3,4,7,left,9,7,665,x,z,334
112,1,23,female,2,DIGIT,1,113,4,6,5,3,7,9,7,5,8,7,9,6,6,9,8,5,9,7,5,left,6,9,665,x,z,334
113,1,23,female,2,DIGIT,1,114,9,9,7,8,9,3,9,6,5,3,9,4,3,6,7,6,3,3,7,right,13,3,665,x,x,334
114,1,23,female,2,DIGIT,1,115,7,9,5,3,9,9,7,5,7,6,7,9,4,7,2,3,3,5,5,left,8,5,665,x,z,334
115,1,23,female,2,DIGIT,1,116,4,7,7,2,7,7,7,5,8,5,8,4,7,4,2,6,5,9,9,right,16,6,665,x,x,334
116,1,23,female,2,DIGIT,1,117,5,3,7,9,5,7,3,5,7,4,9,6,6,7,4,9,9,9,7,left,11,9,665,x,z,334
117,1,23,female,2,DIGIT,1,118,9,9,2,3,5,5,5,9,8,6,2,4,9,5,6,3,5,7,3,right,9,8,665,x,x,334
118,1,23,female,2,DIGIT,1,119,5,3,9,3,9,9,7,8,9,7,7,2,4,2,2,5,5,5,9,right,11,2,665,x,x,334
119,1,23,female,2,DIGIT,1,120,3,4,9,7,3,7,7,5,4,5,4,6,5,4,9,5,9,7,9,right,17,9,665,x,x,334
120,1,23,female,2,DIGIT,1,121,9,9,9,9,8,5,5,2,7,5,4,8,8,4,3,8,9,5,7,left,15,3,665,x,z,334
121,1,23,female,2,DIGIT,1,122,5,9,9,7,9,7,5,5,7,9,9,3,2,5,3,5,4,7,11,left,12,3,665,x,z,334
122,1,23,female,2,DIGIT,1,123,7,7,9,7,6,6,4,3,2,7,6,2,8,2,9,5,9,7,3,right,6,6,665,x,x,334
123,1,23,female,2,DIGIT,1,124,5,3,7,3,7,7,7,9,2,3,5,8,2,2,9,7,3,4,3,left,10,3,665,x,z,334
124,1,23,female,2,DIGIT,1,125,9,9,9,3,7,5,3,9,7,7,9,7,8,4,5,7,9,5,5,right,12,7,665,x,x,334
125,1,23,female,2,DIGIT,1,126,5,5,7,3,3,7,9,7,7,4,2,6,5,5,3,6,9,3,11,left,17,4,665,x,z,334
126,1,23,female,2,DIGIT,1,127,9,9,3,5,3,5,7,5,5,5,7,4,8,8,3,3,8,9,9,right,17,8,665,x,x,334
127,1,23,female,2,DIGIT,1,128,5,6,7,9,7,7,7,6,6,4,2,3,9,5,4,7,2,9,9,right,10,4,665,x,x,334
128,1,23,female,2,DIGIT,1,129,3,3,3,3,7,6,8,7,9,7,7,6,3,8,7,3,9,5,3,right,8,4,665,x,x,334
129,1,23,female,2,DIGIT,1,130,3,3,3,3,9,3,9,3,3,8,6,8,6,8,9,5,7,2,11,right,16,5,665,x,x,334
130,1,23,female,2,DIGIT,1,131,6,3,3,7,7,9,5,9,8,4,2,8,6,2,6,5,9,9,9,left,16,5,665,x,z,334
131,1,23,female,2,DIGIT,1,132,9,3,9,7,5,5,3,6,3,5,4,2,2,3,7,8,3,3,5,right,8,2,665,x,x,334
132,1,23,female,2,DIGIT,1,133,9,5,9,7,5,7,3,7,3,7,6,2,3,2,9,2,3,3,3,right,11,6,665,x,x,334
133,1,23,female,2,DIGIT,1,134,6,5,7,9,3,7,9,9,5,9,7,9,2,5,9,9,8,7,11,right,12,9,665,x,x,334
134,1,23,female,2,DIGIT,1,135,9,3,5,3,3,6,6,7,7,6,5,2,6,2,6,7,7,5,3,right,6,6,665,x,x,334
135,1,23,female,2,DIGIT,1,136,5,3,7,7,6,3,3,3,3,8,4,5,8,4,8,7,9,9,11,left,14,2,665,x,z,334
136,1,23,female,2,DIGIT,1,137,7,3,9,5,9,3,7,3,5,4,2,4,4,4,7,3,5,7,7,left,11,2,665,x,z,334
137,1,23,female,2,DIGIT,1,138,5,3,9,7,9,4,5,9,7,5,4,8,9,2,5,9,7,3,5,right,13,9,665,x,x,334
138,1,23,female,2,DIGIT,1,139,3,7,3,3,9,9,5,5,7,4,8,5,6,4,4,8,8,3,9,right,14,4,665,x,x,334
139,1,23,female,2,DIGIT,1,140,5,9,9,7,7,5,3,6,7,4,2,8,9,5,2,7,5,3,7,right,15,2,665,x,x,334
140,1,23,female,2,DIGIT,1,141,2,7,9,9,5,3,3,5,5,3,8,6,3,6,3,3,5,6,9,right,12,6,665,x,x,334
141,1,23,female,2,DIGIT,1,142,3,8,3,9,5,9,7,3,7,8,8,6,2,4,7,7,9,9,3,right,11,8,665,x,x,334
142,1,23,female,2,DIGIT,1,143,7,5,3,5,9,3,9,9,3,8,7,5,6,9,6,3,7,9,3,left,10,8,665,x,z,334
143,1,23,female,2,DIGIT,1,144,5,9,2,6,7,5,9,9,4,9,2,2,6,2,8,7,7,9,9,left,13,6,665,x,z,334
144,1,23,female,2,DIGIT,1,145,7,3,5,3,6,5,5,3,4,2,7,8,5,8,4,2,3,3,11,right,15,4,665,x,x,334
145,1,23,female,2,DIGIT,1,146,9,5,9,8,7,4,3,7,3,4,3,4,8,4,6,7,3,5,9,right,17,3,665,x,x,334
146,1,23,female,2,DIGIT,1,147,9,3,5,3,9,3,6,9,9,5,4,3,6,7,3,4,9,9,5,left,7,6,665,x,z,334
147,1,23,female,2,DIGIT,1,148,9,3,9,6,5,3,9,9,2,9,5,2,6,7,5,3,9,7,9,right,14,9,665,x,x,334
148,1,23,female,2,DIGIT,1,149,3,7,4,5,4,4,7,5,7,2,9,2,4,7,2,3,9,9,11,left,15,9,665,x,x,334
149,1,23,female,2,DIGIT,1,150,7,5,6,7,8,9,7,5,2,7,2,8,4,4,9,9,6,3,7,left,11,2,665,x,z,334
150,1,23,female,2,DIGIT,1,151,3,9,9,3,3,5,5,7,6,9,8,2,5,9,7,9,5,9,7,right,14,9,665,x,x,334
151,1,23,female,2,DIGIT,1,152,9,7,3,3,5,9,2,3,5,6,2,7,9,4,9,7,7,2,11,right,12,7,665,x,x,334
152,1,23,female,2,DIGIT,1,153,3,3,5,3,4,8,5,5,4,3,6,4,4,2,5,8,7,5,3,left,6,7,665,x,z,334
153,1,23,female,2,DIGIT,1,154,5,5,9,8,8,4,5,5,3,8,2,2,2,5,3,5,5,7,3,right,6,4,665,x,x,334
154,1,23,female,2,DIGIT,1,155,5,2,7,3,7,9,7,3,9,4,4,9,6,7,4,9,7,5,7,left,11,4,665,x,z,334
155,1,23,female,2,DIGIT,1,156,7,5,3,5,5,4,9,7,6,7,4,6,8,7,9,7,7,7,11,right,16,7,665,x,x,334
156,1,23,female,2,DIGIT,1,157,7,5,3,7,7,5,3,6,3,3,5,7,8,4,7,6,3,9,11,right,18,9,665,x,x,334
157,1,23,female,2,DIGIT,1,158,4,7,5,3,7,9,9,9,2,9,9,4,5,3,8,7,7,9,11,right,15,8,665,x,x,334
158,1,23,female,2,DIGIT,1,159,5,3,3,3,7,2,3,5,3,9,2,8,2,6,5,4,5,5,5,right,13,2,665,x,x,334
159,1,23,female,2,DIGIT,1,160,7,5,2,3,5,7,5,5,6,7,7,2,2,2,9,4,3,3,7,right,10,7,665,x,x,334
160,1,23,female,2,DIGIT,1,161,6,5,5,9,5,5,3,5,4,3,6,6,8,2,9,9,4,3,7,left,15,9,665,x,z,334
161,1,23,female,2,DIGIT,1,162,7,8,5,9,4,9,3,2,4,9,6,4,8,6,9,9,5,7,7,right,9,4,665,x,x,334
162,1,23,female,2,DIGIT,1,163,9,3,3,7,4,6,7,3,9,8,4,4,6,5,8,8,9,7,3,left,5,4,665,x,z,334
163,1,23,female,2,DIGIT,1,164,5,3,3,9,3,3,9,5,9,7,2,7,4,9,5,6,7,5,5,right,12,7,665,x,x,334
164,1,23,female,2,DIGIT,1,165,3,9,7,3,5,3,7,5,5,4,4,6,6,8,6,7,9,9,5,right,8,5,665,x,x,334
165,1,23,female,2,DIGIT,1,166,5,5,5,7,7,7,7,8,9,6,5,3,2,8,8,3,2,5,7,right,13,7,665,x,x,334
166,1,23,female,2,DIGIT,1,167,9,3,7,8,7,3,9,9,9,6,8,8,6,5,5,5,9,7,5,right,7,9,665,x,x,334
167,1,23,female,2,DIGIT,1,168,7,9,9,5,5,8,9,5,6,2,7,6,6,2,5,4,7,3,7,right,13,6,665,x,x,334
168,1,23,female,2,DIGIT,1,169,6,9,4,5,7,3,3,9,5,3,6,4,8,5,8,9,9,5,5,left,8,4,665,x,z,334
169,1,23,female,2,DIGIT,1,170,9,3,9,4,7,3,9,5,6,8,5,7,7,7,2,8,7,7,5,right,7,9,665,x,x,334
170,1,23,female,2,DIGIT,1,171,4,7,2,5,5,8,5,9,3,9,3,5,2,2,9,7,8,3,7,left,11,3,665,x,z,334
171,1,23,female,2,DIGIT,1,172,4,9,6,5,3,4,5,9,6,3,4,3,6,4,3,5,3,3,7,left,13,6,665,x,z,334
172,1,23,female,2,DIGIT,1,173,9,7,3,8,2,3,6,3,8,7,4,8,8,3,7,8,5,5,11,left,16,8,665,x,z,334
173,1,23,female,2,DIGIT,1,174,4,5,9,7,3,2,9,4,7,3,2,2,8,4,5,8,9,9,9,right,13,8,665,x,x,334
174,1,23,female,2,DIGIT,1,175,7,5,9,9,3,8,5,7,6,3,8,6,9,6,6,5,6,7,7,left,11,2,665,x,z,334
175,1,23,female,2,DIGIT,1,176,3,5,7,3,3,7,7,7,9,4,7,2,2,6,7,3,9,9,7,left,12,2,665,x,z,334
176,1,23,female,2,DIGIT,1,177,9,9,6,5,7,5,3,7,5,7,8,4,9,8,7,3,9,9,7,left,11,8,665,x,z,334
177,1,23,female,2,DIGIT,1,178,5,7,3,7,7,7,9,3,9,3,4,9,6,4,3,5,3,3,3,right,4,7,665,x,x,334
178,1,23,female,2,DIGIT,1,179,4,7,9,5,5,9,5,7,8,8,8,8,8,7,2,7,2,3,9,right,15,3,665,x,x,334
179,1,23,female,2,DIGIT,1,180,7,7,7,7,5,5,9,9,2,9,8,2,3,6,8,2,5,4,9,left,14,6,665,x,z,334
180,1,23,female,2,DIGIT,1,181,3,7,9,7,5,5,4,9,6,9,2,4,4,8,3,4,7,5,9,left,12,4,665,x,z,334
181,1,23,female,2,DIGIT,1,182,9,6,5,7,7,3,7,5,3,2,8,5,8,2,5,6,7,3,7,right,13,8,665,x,x,334
182,1,23,female,2,DIGIT,1,183,9,9,3,9,9,5,6,5,2,7,6,4,5,2,5,9,9,5,3,right,4,9,665,x,x,334
183,1,23,female,2,DIGIT,1,184,7,5,7,3,8,7,5,3,9,7,3,2,6,2,8,5,9,7,3,left,7,5,665,x,z,334
184,1,23,female,2,DIGIT,1,185,3,7,7,5,5,3,5,3,6,7,3,2,7,4,6,3,5,7,5,right,6,4,665,x,x,334
185,1,23,female,2,DIGIT,1,186,4,4,3,9,3,5,7,8,2,6,8,6,9,4,5,3,3,9,11,right,13,9,665,x,x,334
186,1,23,female,2,DIGIT,1,187,5,5,3,3,7,6,7,9,9,7,4,2,7,5,3,6,8,7,9,right,12,7,665,x,x,334
187,1,23,female,2,DIGIT,1,188,3,6,7,3,8,7,3,3,2,4,2,2,7,2,7,4,7,9,5,right,7,5,665,x,x,334
188,1,23,female,2,DIGIT,1,189,3,7,5,9,7,5,9,2,7,4,9,8,9,2,7,7,9,9,7,right,8,2,665,x,x,334
189,1,23,female,2,DIGIT,1,190,9,5,3,8,3,7,4,5,6,4,4,6,4,6,2,4,2,9,7,left,13,2,665,x,z,334
190,1,23,female,2,DIGIT,1,191,7,9,7,7,3,9,9,5,4,9,9,9,5,3,8,2,9,3,11,left,18,3,665,x,z,334
191,1,23,female,2,DIGIT,1,192,7,9,7,3,7,3,6,5,2,9,5,6,9,7,5,3,9,9,3,left,9,4,665,x,z,334
192,1,23,female,2,DIGIT,1,193,7,7,3,7,3,9,7,5,8,8,5,8,9,2,3,8,5,5,5,right,13,2,665,x,x,334
193,1,23,female,2,DIGIT,1,194,7,3,7,5,9,5,7,7,3,4,9,8,6,2,9,5,7,9,9,right,12,7,665,x,x,334
194,1,23,female,2,DIGIT,1,195,7,5,5,3,3,7,5,7,2,3,2,7,3,5,9,3,3,3,7,left,14,5,665,x,z,334
195,1,23,female,2,DIGIT,1,196,9,9,5,7,3,7,5,5,3,5,2,2,6,9,9,4,9,7,7,right,13,6,665,x,x,334
196,1,23,female,2,DIGIT,1,197,5,7,3,3,7,3,5,5,2,4,6,6,8,4,3,3,3,9,5,right,7,7,665,x,x,334
197,1,23,female,2,DIGIT,1,198,3,8,3,7,9,5,3,3,7,2,6,6,6,9,8,3,9,3,3,left,5,9,665,x,z,334
198,1,23,female,2,DIGIT,1,199,5,3,9,9,7,3,3,2,5,4,4,3,7,9,9,3,3,9,7,left,10,3,665,x,x,334
199,1,23,female,2,DIGIT,1,200,5,9,9,4,9,3,9,7,3,7,2,2,8,6,5,5,8,3,9,right,14,6,665,x,x,334
200,1,23,female,2,DIGIT,1,201,3,7,5,9,7,3,3,5,2,4,5,4,6,8,3,3,3,9,7,left,14,8,665,x,z,334
201,1,23,female,2,DIGIT,1,202,5,5,3,3,5,7,4,5,3,7,2,7,8,8,8,2,8,7,9,left,10,7,665,x,z,334
202,1,23,female,2,DIGIT,1,203,4,5,2,9,3,3,5,3,2,7,6,7,3,7,5,6,4,5,5,right,11,6,665,x,x,334
203,1,23,female,2,DIGIT,1,204,5,3,5,7,9,9,3,3,5,3,6,4,9,2,3,6,9,7,7,right,12,4,665,x,x,334
204,1,23,female,2,DIGIT,1,205,8,3,9,2,4,7,9,6,4,3,3,8,7,7,8,7,7,7,11,right,14,7,665,x,x,334
205,1,23,female,2,DIGIT,1,206,7,3,4,3,6,3,3,9,4,3,3,5,3,5,5,3,9,7,7,left,10,3,665,x,z,334
206,1,23,female,2,DIGIT,1,207,3,5,5,9,5,9,3,3,4,9,7,8,7,6,7,3,6,9,3,left,8,3,665,x,z,334
207,1,23,female,2,DIGIT,1,208,7,5,5,3,9,7,5,5,5,3,9,3,8,7,3,5,9,4,5,right,11,8,665,x,x,334
208,1,23,female,2,DIGIT,1,209,7,3,9,3,2,3,9,7,7,5,7,6,6,3,3,3,5,5,7,right,15,3,665,x,x,334
209,1,23,female,2,DIGIT,1,210,9,3,7,3,5,9,4,6,4,2,4,9,7,2,7,7,5,9,3,left,6,9,665,x,z,334
210,1,23,female,2,DIGIT,1,211,7,5,5,6,5,5,5,4,4,4,8,2,2,3,4,7,7,7,7,right,15,4,665,x,x,334
211,1,23,female,2,DIGIT,1,212,6,5,6,8,8,5,5,5,3,4,8,9,8,6,5,2,7,6,7,right,13,8,665,x,x,334
212,1,23,female,2,DIGIT,1,213,7,4,8,3,5,8,9,3,8,8,8,4,2,9,6,3,7,5,3,left,10,8,665,x,z,334
213,1,23,female,2,DIGIT,1,214,9,5,7,9,6,7,5,9,6,2,6,6,8,3,2,5,9,7,7,right,8,9,665,x,x,334
214,1,23,female,2,DIGIT,1,215,5,2,4,9,9,4,3,3,9,8,4,3,9,4,9,3,5,5,3,left,9,2,665,x,z,334
215,1,23,female,2,DIGIT,1,216,5,7,5,5,5,9,5,7,8,7,6,6,5,5,9,5,5,9,3,left,6,4,665,x,z,334
216,1,23,female,2,DIGIT,1,217,9,4,5,9,9,7,5,9,5,4,8,6,7,2,8,5,2,6,5,right,6,7,665,x,x,334
217,1,23,female,2,DIGIT,1,218,5,3,9,3,9,7,3,3,9,6,4,5,4,7,3,5,7,9,5,right,8,3,665,x,x,334
218,1,23,female,2,DIGIT,1,219,7,7,9,9,9,3,7,7,8,7,6,6,8,4,6,9,2,4,7,left,11,6,665,x,z,334
219,1,23,female,2,DIGIT,1,220,3,9,6,5,5,5,6,9,2,7,4,3,4,4,3,7,5,9,3,left,9,2,665,x,z,334
220,1,23,female,2,DIGIT,1,221,5,9,9,5,7,3,3,2,4,2,9,9,8,2,9,9,3,4,5,left,6,3,665,x,z,334
221,1,23,female,2,DIGIT,1,222,9,2,7,3,3,7,3,5,2,4,4,8,8,3,9,9,7,5,5,right,9,2,665,x,x,334
222,1,23,female,2,DIGIT,1,223,5,8,3,5,5,4,5,5,3,6,2,4,6,3,9,8,5,3,5,left,13,6,665,x,z,334
223,1,23,female,2,DIGIT,1,224,3,7,3,3,7,3,7,9,7,9,8,9,2,2,6,4,5,7,9,left,13,2,665,x,z,334
224,1,23,female,2,DIGIT,1,225,7,5,7,5,9,5,3,3,9,8,4,4,5,2,6,5,3,9,3,left,5,9,665,x,z,334
225,1,23,female,2,DIGIT,1,226,5,3,3,7,7,9,7,3,5,5,7,2,4,2,7,2,5,5,3,left,10,5,665,x,z,334
226,1,23,female,2,DIGIT,1,227,5,7,3,2,2,5,9,9,9,5,4,8,3,7,5,9,2,9,11,right,18,9,665,x,x,334
227,1,23,female,2,DIGIT,1,228,5,7,9,5,5,5,3,5,6,2,8,5,6,8,5,3,3,9,7,right,15,5,665,x,x,334
228,1,23,female,2,DIGIT,1,229,5,5,9,9,7,9,7,9,8,4,4,2,9,9,5,5,5,8,9,right,15,7,665,x,x,334
229,1,23,female,2,DIGIT,1,230,5,6,7,7,3,3,5,7,2,8,4,2,6,3,7,9,5,9,11,left,12,8,665,x,z,334
230,1,23,female,2,DIGIT,1,231,9,5,3,3,7,7,7,9,5,9,4,6,5,5,6,3,9,6,9,right,14,5,665,x,x,334
231,1,23,female,2,DIGIT,1,232,7,9,4,5,7,3,2,3,8,3,8,8,5,2,7,7,3,5,9,left,14,2,665,x,z,334
232,1,23,female,2,DIGIT,1,233,7,9,9,9,5,7,5,9,2,9,2,8,9,4,5,7,5,7,7,left,12,7,665,x,z,334
233,1,23,female,2,DIGIT,1,234,5,7,3,7,3,5,3,2,9,8,3,8,4,9,3,3,5,9,11,left,16,3,665,x,z,334
234,1,23,female,2,DIGIT,1,235,5,7,6,3,5,7,9,2,7,5,3,2,6,6,5,8,7,5,9,left,13,7,665,x,z,334
235,1,23,female,2,DIGIT,1,236,5,9,7,4,9,7,5,7,3,7,9,8,2,7,2,7,9,7,7,left,15,2,665,x,z,334
236,1,23,female,2,DIGIT,1,237,5,4,7,5,7,5,7,3,3,9,9,8,5,3,3,7,7,9,9,left,15,4,665,x,z,334
237,1,23,female,2,DIGIT,1,238,9,2,5,3,9,5,9,3,3,6,6,7,8,8,3,6,7,7,5,left,9,3,665,x,z,334
238,1,23,female,2,DIGIT,1,239,7,9,3,3,7,7,9,9,2,9,9,2,8,2,9,2,9,9,5,left,11,6,665,x,z,334
239,1,23,female,2,DIGIT,1,240,9,3,7,3,5,3,3,5,5,2,4,8,4,4,8,4,3,9,3,left,6,2,665,x,z,334
240,1,23,female,3,DIGIT,0,1,9,5,7,5,7,7,6,8,8,4,8,2,8,5,7,2,5,3,5,right,11,8,665,x,x,334
241,1,23,female,3,DIGIT,0,2,3,7,5,8,9,7,5,6,9,3,9,4,4,7,9,7,2,5,11,right,17,2,665,x,x,334
242,1,23,female,3,DIGIT,0,3,3,5,9,3,9,7,3,3,5,5,7,4,8,3,3,2,9,5,3,left,7,3,665,x,z,334
243,1,23,female,3,DIGIT,0,4,3,9,5,3,3,7,3,7,7,3,2,9,2,9,5,5,9,8,3,left,4,3,665,x,z,334
244,1,23,female,3,DIGIT,0,5,5,7,3,5,2,5,2,3,3,8,4,4,9,7,5,6,3,3,3,right,8,3,665,x,x,334
245,1,23,female,3,DIGIT,0,6,9,3,3,7,7,3,9,5,7,5,4,6,2,9,9,9,7,7,3,right,5,7,665,x,x,334
246,1,23,female,3,DIGIT,0,7,7,7,5,7,3,6,4,7,4,5,5,2,2,5,5,6,5,9,5,left,13,2,665,x,z,334
247,1,23,female,3,DIGIT,0,8,9,3,8,9,5,3,5,7,9,8,8,4,9,2,7,4,7,5,7,right,9,9,665,x,x,334
248,1,23,female,3,DIGIT,0,9,3,9,5,7,2,9,3,9,2,4,9,4,4,5,3,7,3,9,7,right,15,3,665,x,x,334
249,1,23,female,3,DIGIT,0,10,5,5,7,5,3,9,3,3,9,5,9,4,8,3,5,3,5,3,9,right,15,5,665,x,x,334
250,1,23,female,3,DIGIT,0,11,3,7,9,9,5,5,6,5,3,5,8,5,2,8,5,2,3,5,7,right,9,3,665,x,x,334
251,1,23,female,3,DIGIT,0,12,5,4,3,9,3,3,4,9,2,8,8,7,9,2,9,5,3,5,9,left,12,8,665,x,z,334
252,1,23,female,3,DIGIT,0,13,7,5,3,3,3,6,2,5,9,7,9,8,6,2,9,7,7,7,3,left,9,9,665,x,z,334
253,1,23,female,3,DIGIT,0,14,9,3,3,9,5,3,9,7,4,3,8,7,6,8,4,6,3,3,7,left,13,6,665,x,z,334
254,1,23,female,3,DIGIT,0,15,5,5,3,4,4,7,5,5,3,8,7,2,4,7,5,5,9,8,5,left,6,7,665,x,z,334
255,1,23,female,3,DIGIT,0,16,9,3,3,3,5,2,9,7,7,6,4,9,8,8,7,3,3,9,5,left,10,6,665,x,z,334
256,1,23,female,3,DIGIT,0,17,5,7,7,6,7,3,5,3,9,3,4,8,6,4,4,9,5,8,7,left,10,3,665,x,z,334
257,1,23,female,3,DIGIT,0,18,7,9,5,5,9,9,3,3,4,4,6,3,7,7,9,7,8,4,7,right,12,3,665,x,x,334
258,1,23,female,3,DIGIT,0,19,3,9,2,9,7,9,7,7,4,4,3,6,4,9,6,9,9,5,7,left,11,3,665,x,z,334
259,1,23,female,3,DIGIT,0,20,7,5,5,3,9,5,8,7,9,5,6,4,2,2,7,5,3,5,11,right,12,4,665,x,x,334
260,1,23,female,3,DIGIT,0,21,5,8,9,3,3,3,8,5,3,5,7,4,3,4,8,8,9,3,7,right,13,3,665,x,x,334
261,1,23,female,3,DIGIT,0,22,7,4,7,9,9,5,3,7,3,9,3,8,5,3,4,5,5,7,5,left,13,5,665,x,z,334
262,1,23,female,3,DIGIT,0,23,7,8,3,7,4,5,8,5,5,9,8,8,4,2,3,7,8,3,7,right,12,8,665,x,x,334
263,1,23,female,3,DIGIT,0,24,7,9,3,3,7,9,5,3,7,3,8,6,4,3,6,3,9,7,7,right,14,3,665,x,x,334
264,1,23,female,3,DIGIT,0,25,7,5,5,5,6,3,5,7,2,5,2,8,2,5,2,7,3,5,3,right,7,5,665,x,x,334
265,1,23,female,3,DIGIT,0,26,7,6,7,3,5,7,7,5,7,6,2,2,2,2,9,2,9,7,9,right,12,2,665,x,x,334
266,1,23,female,3,DIGIT,0,27,9,7,7,9,5,7,2,4,3,3,3,5,4,2,9,5,3,5,11,left,18,5,665,x,z,334
267,1,23,female,3,DIGIT,0,28,5,9,5,7,5,9,4,9,5,7,2,8,2,7,4,9,5,4,7,right,10,9,665,x,x,334
268,1,23,female,3,DIGIT,0,29,7,9,7,7,5,7,9,9,8,6,6,2,8,4,8,7,9,7,3,left,5,5,665,x,z,334
269,1,23,female,3,DIGIT,0,30,7,6,5,3,8,9,3,5,4,9,2,6,8,6,7,5,7,7,5,right,11,2,665,x,x,334
270,1,23,female,3,DIGIT,0,31,5,6,7,7,9,9,9,5,5,5,4,8,2,8,6,4,9,9,5,right,6,9,665,x,x,334
271,1,23,female,3,DIGIT,0,32,7,9,3,9,7,7,9,9,5,9,2,8,9,9,4,8,7,5,9,left,15,4,665,x,z,334
272,1,23,female,3,DIGIT,0,33,5,3,5,9,3,3,5,7,7,4,3,2,2,9,7,2,8,9,10,right,18,9,665,x,x,334
273,1,23,female,3,DIGIT,0,34,7,5,5,3,3,5,9,5,7,3,5,4,2,9,9,7,3,9,9,right,12,9,665,x,x,334
274,1,23,female,3,DIGIT,0,35,5,7,9,5,9,4,3,6,2,8,6,4,7,9,7,3,7,9,7,left,10,8,665,x,z,334
275,1,23,female,3,DIGIT,0,36,3,9,2,7,7,7,3,5,3,3,3,8,7,8,3,6,3,3,3,right,7,3,665,x,x,334
276,1,23,female,3,DIGIT,0,37,7,8,5,9,3,3,7,3,3,7,6,2,3,7,2,3,9,3,7,right,8,3,665,x,x,334
277,1,23,female,3,DIGIT,0,38,5,9,9,3,9,8,5,7,9,9,4,6,3,9,5,5,5,5,9,left,17,5,665,x,z,334
278,1,23,female,3,DIGIT,0,39,3,9,9,7,3,7,7,3,6,5,4,2,2,4,5,4,5,7,7,left,12,2,665,x,z,334
279,1,23,female,3,DIGIT,0,40,9,9,3,7,9,4,3,6,2,5,7,6,6,5,6,7,2,3,3,right,10,5,665,x,x,334
280,1,23,female,3,DIGIT,0,41,5,5,5,5,9,6,7,7,6,3,6,6,7,5,3,7,7,7,11,left,18,7,665,x,z,334
281,1,23,female,3,DIGIT,0,42,7,3,7,7,5,9,7,5,2,2,6,8,5,9,9,7,3,5,11,right,13,5,665,x,x,334
282,1,23,female,3,DIGIT,0,43,9,3,3,9,9,4,9,9,4,4,9,4,4,2,6,5,9,5,10,right,18,5,665,x,x,334
283,1,23,female,3,DIGIT,0,44,3,5,7,3,5,9,5,3,2,3,2,3,7,5,3,9,2,7,7,right,9,2,665,x,x,334
284,1,23,female,3,DIGIT,0,45,5,8,3,9,9,5,7,5,4,8,3,3,2,9,2,7,5,5,7,left,14,9,665,x,z,334
285,1,23,female,3,DIGIT,0,46,5,9,6,3,3,3,5,5,7,5,2,4,4,7,9,5,5,3,7,left,13,4,665,x,z,334
286,1,23,female,3,DIGIT,0,47,5,3,3,8,7,7,5,3,8,3,2,6,4,6,5,5,7,9,5,right,8,2,665,x,x,334
287,1,23,female,3,DIGIT,0,48,6,5,5,7,7,5,3,7,2,7,5,7,2,4,6,3,5,9,7,left,15,6,665,x,z,334
288,1,23,female,3,DIGIT,0,49,7,9,6,9,4,3,3,7,7,7,4,6,9,3,7,9,8,7,7,right,14,3,665,x,x,334
289,1,23,female,3,DIGIT,0,50,9,5,7,5,8,6,5,7,7,2,3,9,5,3,2,3,7,5,3,left,8,7,665,x,z,334
290,1,23,female,3,DIGIT,0,51,2,3,5,2,3,5,7,9,3,3,6,5,5,4,3,5,3,7,5,left,6,5,665,x,z,334
291,1,23,female,3,DIGIT,0,52,9,9,5,3,9,5,3,5,6,3,2,8,2,5,4,9,7,9,7,left,12,8,665,x,z,334
292,1,23,female,3,DIGIT,0,53,3,7,7,9,8,7,5,5,5,3,6,4,7,8,9,3,7,5,7,right,14,8,665,x,x,334
293,1,23,female,3,DIGIT,0,54,3,5,9,2,7,3,3,5,2,7,3,9,7,8,9,9,9,9,9,left,12,3,665,x,z,334
294,1,23,female,3,DIGIT,0,55,9,3,5,9,5,7,5,7,4,5,2,9,3,2,5,7,7,7,9,left,10,5,665,x,z,334
295,1,23,female,3,DIGIT,0,56,9,5,3,4,7,9,7,9,7,3,2,7,7,2,8,6,9,9,7,left,14,2,665,x,z,334
296,1,23,female,3,DIGIT,0,57,4,5,2,3,9,4,8,3,5,7,6,2,6,8,4,7,3,5,9,right,10,5,665,x,x,334
297,1,23,female,3,DIGIT,0,58,5,2,5,4,5,8,3,5,5,3,9,4,5,9,6,2,7,9,7,right,15,5,665,x,x,334
298,1,23,female,3,DIGIT,0,59,7,3,9,3,4,9,9,8,3,2,8,3,9,8,2,2,2,3,5,left,12,3,665,x,z,334
299,1,23,female,3,DIGIT,0,60,2,7,3,3,2,7,9,5,7,5,5,5,2,2,6,7,7,3,9,right,17,7,665,x,x,334
300,1,23,female,3,DIGIT,0,61,3,3,3,3,5,4,5,3,3,4,9,5,2,4,9,7,7,3,3,left,8,3,665,x,z,334
301,1,23,female,3,DIGIT,0,62,7,3,4,2,9,3,6,8,3,3,3,6,8,3,9,3,5,9,7,right,8,8,665,x,x,334
302,1,23,female,3,DIGIT,0,63,8,4,5,3,2,7,5,5,7,8,6,8,2,8,9,5,5,3,3,left,6,7,665,x,z,334
303,1,23,female,3,DIGIT,0,64,9,9,9,3,5,3,5,5,7,7,3,4,3,2,9,5,8,9,11,right,15,3,665,x,x,334
304,1,23,female,3,DIGIT,0,65,3,9,9,7,7,9,7,3,6,2,4,4,8,8,5,9,5,3,3,left,10,2,665,x,z,334
305,1,23,female,3,DIGIT,0,66,5,9,5,9,7,9,9,5,4,9,6,4,6,8,3,4,9,2,5,left,13,4,665,x,z,334
306,1,23,female,3,DIGIT,0,67,9,3,5,2,7,9,9,4,6,2,3,6,2,3,7,7,9,3,9,left,13,2,665,x,z,334
307,1,23,female,3,DIGIT,0,68,7,5,5,9,7,3,9,5,5,7,2,9,9,2,5,9,7,9,5,left,10,7,665,x,z,334
308,1,23,female,3,DIGIT,0,69,9,7,5,7,3,5,7,5,5,7,6,7,9,7,3,3,9,9,11,left,14,4,665,x,x,334
309,1,23,female,3,DIGIT,0,70,5,3,5,7,5,5,7,5,7,3,3,7,9,8,5,3,3,5,5,left,7,7,665,x,z,334
310,1,23,female,3,DIGIT,0,71,5,9,5,9,9,5,7,7,6,3,7,6,7,6,3,3,3,9,7,left,10,3,665,x,z,334
311,1,23,female,3,DIGIT,0,72,5,5,3,9,3,7,7,5,3,3,7,8,2,7,2,4,9,7,9,left,12,8,665,x,z,334
312,1,23,female,3,DIGIT,0,73,5,7,9,5,2,9,4,5,3,9,9,8,5,8,6,5,3,7,7,right,11,9,665,x,x,334
313,1,23,female,3,DIGIT,0,74,7,3,7,3,7,7,5,5,3,9,5,9,2,4,5,8,5,5,3,left,8,5,665,x,z,334
314,1,23,female,3,DIGIT,0,75,3,7,9,9,9,9,7,9,4,3,3,2,4,9,3,9,8,5,3,left,10,3,665,x,z,334
315,1,23,female,3,DIGIT,0,76,9,9,7,5,7,9,9,5,3,5,8,8,9,6,7,4,2,9,5,right,7,9,665,x,x,334
316,1,23,female,3,DIGIT,0,77,3,7,2,9,9,7,9,9,2,7,6,8,7,4,4,4,5,7,5,right,9,2,665,x,x,334
317,1,23,female,3,DIGIT,0,78,3,9,3,3,9,8,7,7,6,7,7,8,6,6,9,9,3,9,5,left,13,6,665,x,z,334
318,1,23,female,3,DIGIT,0,79,5,9,5,4,9,3,7,7,2,7,7,8,5,6,9,2,7,3,9,right,12,8,665,x,x,334
319,1,23,female,3,DIGIT,0,80,2,6,9,9,5,6,7,9,3,5,2,8,8,4,6,5,3,5,7,right,11,2,665,x,x,334
320,1,23,female,3,DIGIT,0,81,9,7,8,3,8,2,5,3,6,6,2,9,6,9,6,5,6,3,3,left,6,8,665,x,z,334
321,1,23,female,3,DIGIT,0,82,5,7,9,9,7,9,5,9,7,7,5,8,4,8,3,9,9,5,5,right,12,8,665,x,x,334
322,1,23,female,3,DIGIT,0,83,7,3,5,9,5,2,5,7,6,8,8,9,4,7,3,2,7,9,9,right,13,4,665,x,x,334
323,1,23,female,3,DIGIT,0,84,4,3,9,3,5,9,7,7,2,3,6,8,8,2,9,3,7,4,5,right,11,6,665,x,x,334
324,1,23,female,3,DIGIT,0,85,7,3,3,7,9,5,9,3,5,9,3,2,6,9,2,7,7,2,9,left,14,3,665,x,z,334
325,1,23,female,3,DIGIT,0,86,7,9,3,9,9,3,9,9,5,4,6,9,4,5,3,3,9,9,7,right,8,9,665,x,x,334
326,1,23,female,3,DIGIT,0,87,3,8,7,3,7,3,8,4,3,4,6,2,3,8,7,7,3,2,7,left,12,2,665,x,z,334
327,1,23,female,3,DIGIT,0,88,9,7,9,5,3,2,9,7,2,2,6,6,5,8,2,2,5,9,7,right,15,2,665,x,x,334
328,1,23,female,3,DIGIT,0,89,7,5,7,6,7,3,7,6,4,9,2,5,2,9,3,8,7,3,7,right,8,6,665,x,x,334
329,1,23,female,3,DIGIT,0,90,5,3,9,5,9,9,9,5,7,2,9,8,6,5,6,4,5,7,5,left,10,2,665,x,z,334
330,1,23,female,3,DIGIT,0,91,5,7,7,8,7,7,5,5,5,9,3,9,4,6,8,6,3,3,5,right,11,3,665,x,x,334
331,1,23,female,3,DIGIT,0,92,9,7,8,9,3,3,7,3,4,4,5,6,4,9,7,5,9,3,9,right,17,9,665,x,x,334
332,1,23,female,3,DIGIT,0,93,5,8,9,2,2,5,3,3,7,9,7,6,6,2,7,9,9,5,5,right,12,6,665,x,x,334
333,1,23,female,3,DIGIT,0,94,7,7,7,4,2,5,5,5,5,5,5,4,8,3,5,9,7,6,5,right,12,6,665,x,x,334
334,1,23,female,3,DIGIT,0,95,8,9,5,9,2,3,8,3,9,7,9,9,5,5,3,3,3,3,9,right,16,3,665,x,x,334
335,1,23,female,3,DIGIT,0,96,3,5,7,3,7,3,3,3,5,5,7,8,6,8,8,2,5,5,3,right,6,7,665,x,x,334
336,1,23,female,3,DIGIT,0,97,2,5,5,7,3,9,3,9,4,9,9,8,7,6,7,4,7,9,11,left,13,7,665,x,z,334
337,1,23,female,3,DIGIT,0,98,3,7,7,8,7,3,9,5,7,3,7,4,8,2,9,3,3,9,7,right,11,7,665,x,x,334
338,1,23,female,3,DIGIT,0,99,9,5,9,9,3,3,6,9,9,3,4,8,3,5,8,6,7,5,11,right,16,5,665,x,x,334
339,1,23,female,3,DIGIT,0,100,7,3,9,9,9,5,7,7,8,7,8,6,4,9,8,3,9,7,3,right,5,4,665,x,x,334
340,1,23,female,3,DIGIT,0,101,9,5,5,8,3,9,9,7,2,2,7,6,3,6,4,3,7,9,5,right,9,2,665,x,x,334
341,1,23,female,3,DIGIT,0,102,4,7,3,7,9,3,8,6,4,9,8,9,7,2,5,2,7,9,3,right,11,8,665,x,x,334
342,1,23,female,3,DIGIT,0,103,5,9,9,5,5,5,9,5,5,7,3,6,8,6,8,9,3,7,7,right,8,5,665,x,x,334
343,1,23,female,3,DIGIT,0,104,7,9,3,5,6,7,7,9,9,6,5,2,4,8,4,7,9,7,11,right,14,8,665,x,x,334
344,1,23,female,3,DIGIT,0,105,3,3,9,9,5,7,9,8,5,8,2,6,2,7,7,3,7,9,11,left,12,6,665,x,z,334
345,1,23,female,3,DIGIT,0,106,5,5,3,9,2,3,7,5,9,7,6,2,8,4,5,3,9,5,9,left,10,7,665,x,z,334
346,1,23,female,3,DIGIT,0,107,5,3,7,3,5,7,7,9,3,5,6,3,6,5,4,6,3,7,7,left,12,3,665,x,z,334
347,1,23,female,3,DIGIT,0,108,5,3,5,3,5,9,9,9,9,5,9,8,6,7,3,6,2,3,7,right,12,8,665,x,x,334
348,1,23,female,3,DIGIT,0,109,7,8,4,5,9,9,3,3,7,7,9,8,2,8,2,7,3,3,7,left,13,2,665,x,z,334
349,1,23,female,3,DIGIT,0,110,3,7,9,9,3,9,3,3,8,5,5,4,5,8,3,7,5,5,3,left,8,3,665,x,z,334
350,1,23,female,3,DIGIT,0,111,7,7,9,7,8,7,9,9,8,9,6,7,2,3,4,2,7,3,7,left,14,3,665,x,z,334
351,1,23,female,3,DIGIT,0,112,5,5,9,5,7,7,3,5,9,2,4,4,2,2,9,7,9,9,7,right,9,9,665,x,x,334
352,1,23,female,3,DIGIT,0,113,8,3,5,5,9,5,7,5,2,9,8,2,6,4,3,3,7,9,5,right,13,6,665,x,x,334
353,1,23,female,3,DIGIT,0,114,7,2,8,3,3,7,5,3,2,4,6,4,2,4,7,3,3,3,7,right,10,6,665,x,x,334
354,1,23,female,3,DIGIT,0,115,7,7,3,5,2,7,3,6,3,7,3,8,3,8,5,7,7,5,3,right,5,2,665,x,x,334
355,1,23,female,3,DIGIT,0,116,9,3,3,7,7,7,5,5,6,3,9,8,3,3,3,8,7,3,3,right,11,9,665,x,x,334
356,1,23,female,3,DIGIT,0,117,3,7,7,9,3,3,9,3,5,7,4,6,7,6,3,4,5,5,5,right,10,7,665,x,x,334
357,1,23,female,3,DIGIT,0,118,7,7,5,2,9,9,3,5,3,3,8,3,7,5,6,7,5,5,7,right,14,5,665,x,x,334
358,1,23,female,3,DIGIT,0,119,3,3,3,5,3,7,3,5,3,3,4,3,2,8,5,2,5,5,3,right,9,3,665,x,x,334
359,1,23,female,3,DIGIT,0,120,5,7,2,5,9,9,9,5,5,9,6,8,6,5,4,6,5,7,9,right,12,8,665,x,x,334
360,1,23,female,3,DIGIT,0,121,3,7,2,5,7,3,9,3,8,2,6,2,5,4,4,4,5,3,7,left,10,2,665,x,z,334
361,1,23,female,3,DIGIT,0,122,5,9,5,7,7,5,3,5,9,2,6,2,4,8,9,8,3,3,5,left,8,5,665,x,z,334
362,1,23,female,3,DIGIT,0,123,5,3,3,7,3,9,9,5,2,6,7,5,4,4,7,8,9,9,7,right,14,4,665,x,x,334
363,1,23,female,3,DIGIT,0,124,9,5,9,9,5,9,2,8,5,7,4,2,7,2,6,2,2,3,7,right,9,5,665,x,x,334
364,1,23,female,3,DIGIT,0,125,9,6,9,7,7,7,5,5,7,9,4,5,5,6,7,7,3,3,7,left,15,7,665,x,z,334
365,1,23,female,3,DIGIT,0,126,7,5,9,7,3,5,6,3,2,2,6,5,6,3,2,6,5,9,7,left,11,6,665,x,z,334
366,1,23,female,3,DIGIT,0,127,6,7,5,7,7,3,7,5,9,5,2,6,4,4,5,7,3,5,9,left,17,3,665,x,z,334
367,1,23,female,3,DIGIT,0,128,6,3,7,7,2,9,5,3,5,2,7,3,6,4,3,5,3,7,10,right,18,7,665,x,x,334
368,1,23,female,3,DIGIT,0,129,5,7,9,2,5,5,7,9,8,9,6,6,8,5,6,9,5,3,11,left,13,8,665,x,z,334
369,1,23,female,3,DIGIT,0,130,3,9,2,9,3,7,9,6,7,5,6,5,6,9,5,2,9,8,11,right,13,6,665,x,x,334
370,1,23,female,3,DIGIT,0,131,9,7,3,9,9,5,5,7,8,8,6,2,6,5,5,2,5,5,3,right,4,9,665,x,x,334
371,1,23,female,3,DIGIT,0,132,7,6,8,8,5,9,4,3,7,5,3,5,2,9,7,5,7,2,7,right,12,5,665,x,x,334
372,1,23,female,3,DIGIT,0,133,9,6,7,5,5,5,7,8,4,2,2,5,7,2,2,7,3,9,3,right,7,7,665,x,x,334
373,1,23,female,3,DIGIT,0,134,7,5,5,7,7,9,7,5,2,8,4,6,2,2,7,6,7,9,5,right,7,7,665,x,x,334
374,1,23,female,3,DIGIT,0,135,9,9,7,3,3,8,7,5,9,6,2,2,8,3,2,6,5,5,11,right,18,7,665,x,z,334
375,1,23,female,3,DIGIT,0,136,3,9,8,7,7,5,3,9,2,7,2,9,8,7,9,5,5,9,11,right,14,7,665,x,x,334
376,1,23,female,3,DIGIT,0,137,9,9,7,5,3,7,3,7,2,7,5,4,2,7,9,9,5,3,5,left,7,6,665,x,z,334
377,1,23,female,3,DIGIT,0,138,8,2,3,5,5,6,5,9,9,2,3,2,2,4,3,5,7,2,9,right,15,3,665,x,x,334
378,1,23,female,3,DIGIT,0,139,7,9,5,5,9,3,7,8,4,3,7,3,8,3,3,4,7,3,7,left,9,4,665,x,z,334
379,1,23,female,3,DIGIT,0,140,5,3,4,9,9,7,3,3,6,3,5,8,4,6,2,9,5,5,11,right,15,2,665,x,x,334
380,1,23,female,3,DIGIT,0,141,4,9,9,7,3,7,8,7,4,3,3,8,2,5,8,6,7,5,11,right,14,7,665,x,x,334
381,1,23,female,3,DIGIT,0,142,7,9,7,5,2,6,2,7,5,2,9,3,2,6,6,3,9,9,11,right,17,9,665,x,x,334
382,1,23,female,3,DIGIT,0,143,5,3,3,5,3,5,7,3,9,4,8,2,6,7,4,5,7,3,7,right,13,6,665,x,x,334
383,1,23,female,3,DIGIT,0,144,3,3,7,5,9,9,5,3,9,3,6,4,6,4,8,8,5,7,7,left,14,4,665,x,z,334
384,1,23,female,3,DIGIT,0,145,7,5,9,9,7,5,9,3,9,9,9,9,8,8,2,7,3,9,3,right,10,9,665,x,x,334
385,1,23,female,3,DIGIT,0,146,9,3,3,3,5,3,7,3,7,7,4,6,6,6,8,5,7,5,3,right,7,7,665,x,x,334
386,1,23,female,3,DIGIT,0,147,9,9,7,6,7,3,7,4,9,2,3,6,6,7,3,3,3,7,7,left,11,3,665,x,z,334
387,1,23,female,3,DIGIT,0,148,8,5,5,6,5,7,8,9,8,3,9,8,2,6,2,9,7,7,7,right,12,7,665,x,z,334
388,1,23,female,3,DIGIT,0,149,9,7,5,5,5,5,7,9,4,7,5,6,7,2,8,3,9,6,5,left,9,3,665,x,z,334
389,1,23,female,3,DIGIT,0,150,7,3,7,7,3,4,7,9,6,7,4,4,4,9,7,8,3,9,11,right,16,8,665,x,x,334
390,1,23,female,3,DIGIT,0,151,7,3,5,3,7,7,9,5,3,7,7,2,2,3,8,7,5,5,7,left,13,2,665,x,z,334
391,1,23,female,3,DIGIT,0,152,5,9,9,7,2,3,8,9,7,9,8,7,7,9,4,4,5,4,10,left,18,4,665,x,z,334
392,1,23,female,3,DIGIT,0,153,5,2,8,5,3,9,7,7,8,2,6,3,4,2,3,5,3,2,5,right,13,4,665,x,x,334
393,1,23,female,3,DIGIT,0,154,7,9,5,9,7,4,4,7,7,3,7,8,4,4,8,9,2,9,7,right,15,8,665,x,x,334
394,1,23,female,3,DIGIT,0,155,3,7,3,5,5,7,7,7,9,5,4,5,3,4,8,3,7,2,11,right,14,7,665,x,x,334
395,1,23,female,3,DIGIT,0,156,3,5,3,3,7,9,7,6,9,7,7,3,8,4,9,3,9,5,7,right,9,9,665,x,x,334
396,1,23,female,3,DIGIT,0,157,9,5,9,3,5,9,9,9,4,4,4,3,3,8,6,2,3,9,9,right,15,6,665,x,x,334
397,1,23,female,3,DIGIT,0,158,7,9,8,9,9,9,5,2,9,8,6,6,6,4,2,3,6,9,3,left,4,9,665,x,z,334
398,1,23,female,3,DIGIT,0,159,3,7,5,5,7,5,3,7,3,3,4,4,2,3,5,8,5,3,3,left,7,3,665,x,z,334
399,1,23,female,3,DIGIT,0,160,5,4,5,2,7,7,7,4,9,7,6,8,4,6,6,4,9,5,5,left,12,8,665,x,z,334
400,1,23,female,3,DIGIT,0,161,5,3,7,6,5,3,5,7,2,9,7,8,3,3,2,6,7,7,7,left,12,8,665,x,z,334
401,1,23,female,3,DIGIT,0,162,7,3,9,5,9,6,9,7,6,3,3,2,5,8,3,5,7,5,11,right,14,8,665,x,x,334
402,1,23,female,3,DIGIT,0,163,5,9,5,6,5,2,7,2,6,5,9,4,6,2,7,6,3,8,9,right,13,6,665,x,x,334
403,1,23,female,3,DIGIT,0,164,3,7,7,5,5,3,3,5,5,4,8,5,3,4,5,5,3,3,11,left,13,3,665,x,z,334
404,1,23,female,3,DIGIT,0,165,7,3,3,8,5,5,2,7,9,4,6,7,2,4,9,4,7,6,5,left,9,9,665,x,z,334
405,1,23,female,3,DIGIT,0,166,9,3,5,4,7,9,4,5,5,9,2,8,7,4,3,8,5,9,5,right,9,8,665,x,x,334
406,1,23,female,3,DIGIT,0,167,3,9,9,3,5,3,9,4,2,2,3,9,8,8,6,2,7,5,7,left,12,9,665,x,z,334
407,1,23,female,3,DIGIT,0,168,2,3,4,6,9,9,5,9,9,8,9,6,8,2,6,7,6,9,7,left,13,5,665,x,z,334
408,1,23,female,3,DIGIT,0,169,5,5,4,6,6,5,7,3,9,5,2,6,4,5,7,8,6,5,7,right,10,5,665,x,x,334
409,1,23,female,3,DIGIT,0,170,3,4,9,4,7,5,7,9,5,9,2,2,3,7,9,7,3,5,7,right,12,2,665,x,x,334
410,1,23,female,3,DIGIT,0,171,6,5,3,3,9,3,6,3,8,7,3,5,5,3,4,3,8,3,7,right,14,9,665,x,x,334
411,1,23,female,3,DIGIT,0,172,5,9,9,9,9,7,7,2,3,5,4,7,5,5,2,7,3,5,5,right,12,7,665,x,x,334
412,1,23,female,3,DIGIT,0,173,7,7,7,2,7,5,5,7,2,2,7,6,4,6,5,9,9,7,9,right,10,2,665,x,x,334
413,1,23,female,3,DIGIT,0,174,3,3,8,7,6,8,7,8,5,8,3,2,2,2,2,9,3,3,7,left,11,5,665,x,z,334
414,1,23,female,3,DIGIT,0,175,3,9,7,3,9,7,7,7,2,3,3,4,9,4,6,3,6,3,7,left,9,2,665,x,z,334
415,1,23,female,3,DIGIT,0,176,9,6,5,7,5,5,4,7,3,3,7,4,2,2,2,7,3,5,7,right,11,6,665,x,x,334
416,1,23,female,3,DIGIT,0,177,5,9,3,3,9,3,3,5,8,6,4,9,2,2,7,5,3,3,5,right,11,9,665,x,x,334
417,1,23,female,3,DIGIT,0,178,3,7,7,4,2,9,9,7,9,8,2,7,6,3,8,3,7,3,5,left,9,9,665,x,z,334
418,1,23,female,3,DIGIT,0,179,7,5,7,5,5,9,5,6,7,7,8,4,9,6,7,9,9,7,9,right,13,8,665,x,x,334
419,1,23,female,3,DIGIT,0,180,7,9,5,2,7,3,9,7,7,7,8,7,8,9,3,6,8,9,11,left,18,9,665,x,z,334
420,1,23,female,3,DIGIT,0,181,5,7,3,5,5,7,5,9,4,5,9,3,2,7,4,7,7,5,7,right,9,4,665,x,x,334
421,1,23,female,3,DIGIT,0,182,9,7,9,3,3,7,9,7,9,9,2,2,2,8,3,7,9,5,11,left,17,9,665,x,z,334
422,1,23,female,3,DIGIT,0,183,2,6,9,5,4,5,5,2,6,3,4,2,9,6,8,6,9,9,3,right,5,4,665,x,x,334
423,1,23,female,3,DIGIT,0,184,9,5,7,9,9,9,9,5,9,9,7,6,5,6,8,3,5,9,5,left,7,9,665,x,z,334
424,1,23,female,3,DIGIT,0,185,7,3,5,5,3,3,7,7,8,4,3,6,8,7,5,2,3,9,5,left,9,8,665,x,z,334
425,1,23,female,3,DIGIT,0,186,6,7,3,3,9,7,5,5,8,8,4,8,6,9,5,7,9,3,11,left,13,6,665,x,z,334
426,1,23,female,3,DIGIT,0,187,9,5,7,6,9,7,5,7,5,5,4,5,4,4,8,6,9,8,9,left,16,6,665,x,z,334
427,1,23,female,3,DIGIT,0,188,8,4,7,5,9,9,6,5,9,9,2,6,3,6,3,9,7,3,5,right,10,9,665,x,x,334
428,1,23,female,3,DIGIT,0,189,2,9,5,7,9,9,5,9,4,7,4,4,7,6,3,3,8,3,3,right,5,3,665,x,x,334
429,1,23,female,3,DIGIT,0,190,6,9,5,2,4,7,3,9,9,9,2,8,2,9,7,7,5,7,3,left,4,2,665,x,z,334
430,1,23,female,3,DIGIT,0,191,9,3,3,3,9,6,3,5,8,5,7,8,3,5,3,6,9,6,11,left,12,8,665,x,z,334
431,1,23,female,3,DIGIT,0,192,9,3,9,9,5,5,5,9,2,8,2,2,7,4,9,9,5,9,7,left,15,9,665,x,z,334
432,1,23,female,3,DIGIT,0,193,5,9,5,5,5,5,5,4,5,3,6,7,9,2,7,6,5,3,11,right,16,6,665,x,x,334
433,1,23,female,3,DIGIT,0,194,5,2,5,7,7,5,9,3,3,4,2,6,4,2,4,5,5,9,11,left,13,4,665,x,z,334
434,1,23,female,3,DIGIT,0,195,9,7,7,5,3,7,7,9,6,6,8,4,7,3,9,9,3,7,7,right,14,3,665,x,x,334
435,1,23,female,3,DIGIT,0,196,8,3,9,9,5,3,7,5,2,3,9,3,2,6,6,9,5,9,11,right,16,9,665,x,x,334
436,1,23,female,3,DIGIT,0,197,7,4,9,5,9,7,3,5,5,2,8,8,6,8,9,2,7,3,3,left,6,7,665,x,z,334
437,1,23,female,3,DIGIT,0,198,9,9,7,5,3,9,9,9,9,3,7,4,3,2,8,9,9,9,11,left,17,9,665,x,z,334
438,1,23,female,3,DIGIT,0,199,4,3,5,9,2,9,9,5,7,3,6,7,3,6,6,4,9,9,7,left,14,6,665,x,z,334
439,1,23,female,3,DIGIT,0,200,5,3,7,9,9,9,9,9,9,5,4,2,9,2,8,2,7,5,3,right,7,6,665,x,x,334
440,1,23,female,3,DIGIT,0,201,2,8,7,9,3,5,7,9,7,7,6,7,2,3,3,6,5,5,7,right,12,7,665,x,x,334
441,1,23,female,3,DIGIT,0,202,5,3,3,6,7,5,5,3,5,3,3,8,4,6,6,8,5,7,11,right,17,5,665,x,x,334
442,1,23,female,3,DIGIT,0,203,3,7,5,9,5,9,9,5,7,3,7,2,9,2,6,5,7,7,7,left,10,3,665,x,z,334
443,1,23,female,3,DIGIT,0,204,9,9,5,7,7,5,3,9,7,5,6,8,6,2,2,4,9,5,7,right,8,9,665,x,x,334
444,1,23,female,3,DIGIT,0,205,4,5,5,3,5,3,5,3,9,3,5,7,6,3,5,4,5,5,5,right,13,6,665,x,x,334
445,1,23,female,3,DIGIT,0,206,9,3,9,9,7,7,4,7,4,7,2,4,7,8,7,7,5,9,9,right,10,2,665,x,x,334
446,1,23,female,3,DIGIT,0,207,9,5,7,9,3,7,5,7,4,8,8,3,2,7,3,4,9,9,7,right,10,8,665,x,x,334
447,1,23,female,3,DIGIT,0,208,7,7,3,7,8,9,5,3,9,8,7,2,2,5,8,5,5,8,11,left,12,2,665,x,x,334
448,1,23,female,3,DIGIT,0,209,3,7,5,6,3,7,3,5,2,6,8,7,8,7,7,2,3,5,7,right,8,5,665,x,x,334
449,1,23,female,3,DIGIT,0,210,2,7,7,5,5,9,9,7,5,9,8,2,7,4,7,3,4,7,7,right,9,5,665,x,x,334
450,1,23,female,3,DIGIT,0,211,3,7,3,7,5,5,5,7,9,9,4,2,4,3,3,7,9,5,3,right,9,9,665,x,x,334
451,1,23,female,3,DIGIT,0,212,9,5,7,7,5,3,3,9,4,8,8,4,8,8,2,5,7,5,7,right,8,7,665,x,x,334
452,1,23,female,3,DIGIT,0,213,5,3,7,6,7,5,7,5,9,8,8,8,7,4,4,5,5,3,7,left,15,4,665,x,z,334
453,1,23,female,3,DIGIT,0,214,7,4,2,5,2,9,3,7,4,2,7,8,8,4,6,4,9,8,9,right,16,4,665,x,x,334
454,1,23,female,3,DIGIT,0,215,7,8,7,3,7,3,7,7,6,9,5,2,5,2,6,3,3,9,3,right,11,5,665,x,x,334
455,1,23,female,3,DIGIT,0,216,6,4,9,9,7,8,3,3,5,4,9,2,4,4,2,7,5,7,7,right,15,2,665,x,x,334
456,1,23,female,3,DIGIT,0,217,7,9,9,5,3,9,3,3,4,8,6,5,4,7,9,8,7,5,11,right,13,4,665,x,x,334
457,1,23,female,3,DIGIT,0,218,7,3,7,7,5,9,7,3,2,6,2,7,3,2,2,7,9,4,5,right,12,7,665,x,x,334
458,1,23,female,3,DIGIT,0,219,7,4,3,5,9,3,5,3,4,3,8,7,3,8,8,4,5,7,5,left,6,3,665,x,z,334
459,1,23,female,3,DIGIT,0,220,3,3,3,4,3,8,7,9,7,8,3,2,2,2,2,7,9,9,7,left,8,9,665,x,z,334
460,1,23,female,3,DIGIT,0,221,7,9,5,3,9,9,2,7,3,9,6,7,4,5,5,7,3,5,3,right,7,7,665,x,x,334
461,1,23,female,3,DIGIT,0,222,3,9,7,9,7,9,3,8,7,9,6,4,9,2,3,9,3,9,5,left,10,9,665,x,z,334
462,1,23,female,3,DIGIT,0,223,5,9,7,7,6,7,5,7,5,5,5,4,3,4,2,7,3,3,9,right,17,3,665,x,x,334
463,1,23,female,3,DIGIT,0,224,4,7,8,6,3,8,3,5,6,6,5,6,6,4,4,2,9,9,7,right,8,5,665,x,x,334
464,1,23,female,3,DIGIT,0,225,9,3,3,9,5,6,5,5,6,7,2,8,7,5,3,5,7,6,3,right,9,6,665,x,x,334
465,1,23,female,3,DIGIT,0,226,5,7,8,7,2,9,9,3,9,4,8,9,4,8,5,9,3,3,3,left,8,3,665,x,z,334
466,1,23,female,3,DIGIT,0,227,4,7,7,7,3,3,7,5,3,5,5,4,9,4,8,3,5,5,7,left,10,5,665,x,z,334
467,1,23,female,3,DIGIT,0,228,9,9,5,4,9,4,7,5,6,8,2,5,3,8,4,9,9,8,7,left,8,5,665,x,z,334
468,1,23,female,3,DIGIT,0,229,3,5,9,3,7,5,3,2,5,7,8,9,6,8,6,2,2,4,7,left,13,6,665,x,z,334
469,1,23,female,3,DIGIT,0,230,9,7,7,7,5,7,9,5,3,7,7,8,2,8,3,9,9,3,5,left,6,7,665,x,z,334
470,1,23,female,3,DIGIT,0,231,5,3,3,3,9,9,7,3,4,2,3,8,2,7,5,5,3,2,3,right,9,2,665,x,x,334
471,1,23,female,3,DIGIT,0,232,5,7,3,5,5,3,5,7,4,6,3,4,7,6,5,9,4,4,5,left,13,7,665,x,z,334
472,1,23,female,3,DIGIT,0,233,4,3,3,7,2,7,9,5,8,9,5,4,7,5,6,7,5,9,7,left,13,9,665,x,z,334
473,1,23,female,3,DIGIT,0,234,5,5,7,9,3,9,5,7,7,4,8,3,8,6,7,2,2,5,11,left,15,8,665,x,z,334
474,1,23,female,3,DIGIT,0,235,5,7,7,7,7,7,7,5,2,8,9,3,6,3,4,7,3,3,5,right,11,9,665,x,x,334
475,1,23,female,3,DIGIT,0,236,7,3,3,6,6,9,4,7,3,6,2,6,2,2,3,5,6,9,9,right,17,6,665,x,x,334
476,1,23,female,3,DIGIT,0,237,3,7,5,5,8,3,4,7,2,5,4,8,4,6,4,9,3,7,5,right,6,3,665,x,x,334
477,1,23,female,3,DIGIT,0,238,9,2,7,5,4,7,5,3,3,2,8,2,2,4,3,5,3,5,9,right,15,3,665,x,x,334
478,1,23,female,3,DIGIT,0,239,3,3,3,7,8,4,9,7,9,5,9,6,3,8,5,7,2,7,7,left,9,9,665,x,z,334
479,1,23,female,3,DIGIT,0,240,9,3,5,5,6,8,9,7,6,6,9,2,8,8,7,7,3,7,11,left,14,6,665,x,z,334
480,1,23,female,4,DIGIT,0,1,5,9,8,3,7,3,3,7,2,5,9,2,3,4,7,2,7,3,7,left,8,7,665,x,z,334
481,1,23,female,4,DIGIT,0,2,9,5,4,7,3,5,9,3,3,3,5,5,3,5,3,5,9,5,11,right,12,5,665,x,x,334
482,1,23,female,4,DIGIT,0,3,5,3,5,7,6,9,2,3,2,6,2,8,9,7,9,4,3,3,7,left,10,4,665,x,z,334
483,1,23,female,4,DIGIT,0,4,3,8,7,9,9,7,7,2,9,5,2,6,6,6,2,4,9,5,3,left,9,9,665,x,z,334
484,1,23,female,4,DIGIT,0,5,9,7,5,9,7,7,7,2,4,5,8,5,7,9,8,7,5,6,11,right,16,7,665,x,x,334
485,1,23,female,4,DIGIT,0,6,3,7,4,2,3,9,7,5,7,7,2,6,2,7,3,3,7,9,9,left,17,7,665,x,z,334
486,1,23,female,4,DIGIT,0,7,7,9,3,3,7,7,7,4,5,5,4,6,9,7,8,8,5,9,3,right,11,4,665,x,x,334
487,1,23,female,4,DIGIT,0,8,3,9,2,3,6,7,5,7,9,4,2,7,4,9,8,9,9,3,7,right,13,4,665,x,x,334
488,1,23,female,4,DIGIT,0,9,4,3,9,3,9,9,7,2,2,3,4,8,8,2,3,5,6,9,5,right,6,9,665,x,x,334
489,1,23,female,4,DIGIT,0,10,3,9,3,3,4,3,5,3,5,4,5,4,6,7,9,5,5,8,7,right,13,7,665,x,x,334
490,1,23,female,4,DIGIT,0,11,7,5,5,7,5,5,5,7,5,2,4,9,3,4,7,3,6,7,3,right,10,2,665,x,x,334
491,1,23,female,4,DIGIT,0,12,3,7,5,3,3,3,5,9,9,5,2,2,9,2,9,5,9,9,3,left,7,9,665,x,z,334
492,1,23,female,4,DIGIT,0,13,3,7,3,7,6,3,3,5,9,3,6,5,7,9,7,4,9,5,3,right,4,7,665,x,x,334
493,1,23,female,4,DIGIT,0,14,7,3,5,5,3,7,8,9,5,7,6,6,8,5,4,2,3,9,7,right,11,3,665,x,x,334
494,1,23,female,4,DIGIT,0,15,9,5,3,5,3,3,7,9,7,3,4,2,6,7,8,3,7,3,11,right,15,8,665,x,x,334
495,1,23,female,4,DIGIT,0,16,9,9,5,9,3,5,3,2,5,7,2,2,7,5,3,7,9,5,7,right,10,7,665,x,x,334
496,1,23,female,4,DIGIT,0,17,5,6,2,7,9,3,7,8,2,5,4,7,4,2,3,3,5,2,11,right,12,7,665,x,x,334
497,1,23,female,4,DIGIT,0,18,7,5,7,3,9,3,9,9,8,7,4,2,9,2,9,8,9,7,5,right,7,9,665,x,x,334
498,1,23,female,4,DIGIT,0,19,7,8,9,5,5,7,9,9,4,5,7,5,4,2,9,5,3,3,11,right,14,2,665,x,x,334
499,1,23,female,4,DIGIT,0,20,3,5,5,3,5,7,5,7,7,6,9,5,8,9,9,2,9,7,7,left,13,8,665,x,z,334
500,1,23,female,4,DIGIT,0,21,7,7,4,9,3,7,7,9,9,7,4,4,6,3,8,7,3,9,3,right,10,7,665,x,x,334
501,1,23,female,4,DIGIT,0,22,5,9,8,9,9,5,3,7,7,9,7,6,5,8,8,3,3,5,7,left,9,7,665,x,z,334
502,1,23,female,4,DIGIT,0,23,5,7,9,5,7,3,5,9,2,4,8,6,2,4,8,4,7,7,7,left,13,2,665,x,z,334
503,1,23,female,4,DIGIT,0,24,3,6,7,7,5,9,3,7,5,6,6,5,2,6,7,3,3,9,7,right,14,6,665,x,x,334
504,1,23,female,4,DIGIT,0,25,9,9,7,9,9,7,7,7,7,7,7,3,3,4,6,5,7,7,9,left,11,7,665,x,z,334
505,1,23,female,4,DIGIT,0,26,5,7,9,9,5,9,5,3,5,3,5,6,8,6,8,3,6,9,9,right,15,8,665,x,x,334
506,1,23,female,4,DIGIT,0,27,5,3,5,7,3,9,9,9,6,4,2,2,2,4,7,2,5,7,9,left,17,5,665,x,z,334
507,1,23,female,4,DIGIT,0,28,3,9,7,7,5,7,5,9,7,2,2,8,6,5,5,3,4,5,11,left,13,6,665,x,z,334
508,1,23,female,4,DIGIT,0,29,5,7,9,9,4,5,5,5,5,9,6,6,5,6,6,5,9,8,3,left,6,9,665,x,z,334
509,1,23,female,4,DIGIT,0,30,9,3,9,5,5,7,9,7,7,6,9,7,8,2,6,8,3,5,11,right,13,5,665,x,x,334
510,1,23,female,4,DIGIT,0,31,3,2,3,5,3,3,5,5,7,3,8,7,9,4,3,3,5,3,5,left,9,7,665,x,z,334
511,1,23,female,4,DIGIT,0,32,5,4,5,3,5,3,7,5,9,9,2,4,5,8,6,2,8,3,7,left,10,9,665,x,z,334
512,1,23,female,4,DIGIT,0,33,6,3,3,5,7,5,7,5,3,5,2,8,5,5,5,6,3,5,3,left,5,7,665,x,z,334
513,1,23,female,4,DIGIT,0,34,3,5,3,2,9,7,9,3,7,8,6,2,4,4,7,9,9,9,7,right,11,6,665,x,x,334
514,1,23,female,4,DIGIT,0,35,9,9,7,5,2,4,5,7,9,2,5,3,7,2,3,4,7,7,7,right,8,3,665,x,x,334
515,1,23,female,4,DIGIT,0,36,7,7,5,7,7,2,5,5,6,4,5,2,6,3,5,9,3,9,3,right,9,6,665,x,x,334
516,1,23,female,4,DIGIT,0,37,7,8,3,3,9,5,9,3,2,8,3,2,7,3,3,9,5,9,5,left,7,9,665,x,z,334
517,1,23,female,4,DIGIT,0,38,9,7,9,5,2,9,2,9,7,2,6,6,4,3,8,7,7,5,7,left,10,2,665,x,z,334
518,1,23,female,4,DIGIT,0,39,3,9,7,7,5,9,9,3,2,5,6,7,8,9,3,5,9,2,11,right,16,5,665,x,x,334
519,1,23,female,4,DIGIT,0,40,9,7,7,7,3,5,5,9,3,8,4,3,8,4,9,7,9,7,3,left,5,3,665,x,z,334
520,1,23,female,4,DIGIT,0,41,9,7,5,7,5,7,5,2,5,5,5,5,8,9,9,7,7,3,7,right,15,9,665,x,x,334
521,1,23,female,4,DIGIT,0,42,7,9,7,5,5,7,5,5,9,4,5,6,9,8,7,8,5,3,7,left,12,6,665,x,z,334
522,1,23,female,4,DIGIT,0,43,5,7,6,4,4,5,9,9,5,4,8,6,2,9,7,9,3,7,7,right,14,9,665,x,x,334
523,1,23,female,4,DIGIT,0,44,6,6,7,7,5,5,5,3,5,8,3,4,9,2,8,9,7,5,7,right,11,7,665,x,x,334
524,1,23,female,4,DIGIT,0,45,7,9,9,9,4,3,5,7,5,5,7,8,7,4,9,9,3,7,11,left,16,9,665,x,z,334
525,1,23,female,4,DIGIT,0,46,5,5,4,9,9,3,9,2,5,8,3,4,5,2,5,6,3,3,5,right,13,5,665,x,x,334
526,1,23,female,4,DIGIT,0,47,7,5,7,3,5,5,9,5,4,8,2,5,7,4,4,5,6,9,5,right,8,5,665,x,x,334
527,1,23,female,4,DIGIT,0,48,3,3,5,3,3,3,3,3,7,7,6,4,2,6,3,2,7,3,11,left,15,2,665,x,z,334
528,1,23,female,4,DIGIT,0,49,3,7,3,5,3,5,7,3,6,7,9,2,3,3,9,9,9,7,3,left,8,3,665,x,z,334
529,1,23,female,4,DIGIT,0,50,4,3,7,5,7,7,5,7,4,9,2,7,3,6,7,2,2,9,5,left,10,9,665,x,z,334
530,1,23,female,4,DIGIT,0,51,9,5,7,5,7,5,3,3,9,5,4,3,2,4,3,2,3,5,3,left,11,4,665,x,z,334
531,1,23,female,4,DIGIT,0,52,5,2,5,7,9,7,6,9,3,9,7,4,8,4,7,7,4,9,3,left,8,9,665,x,z,334
532,1,23,female,4,DIGIT,0,53,7,9,9,9,8,9,3,5,5,4,4,6,4,5,8,9,9,3,7,right,9,5,665,x,x,334
533,1,23,female,4,DIGIT,0,54,3,7,5,9,9,5,9,9,8,7,3,3,6,3,6,2,9,9,9,right,10,7,665,x,x,334
534,1,23,female,4,DIGIT,0,55,7,8,2,3,4,3,2,5,8,5,4,4,3,2,6,7,9,6,3,left,4,3,665,x,z,334
535,1,23,female,4,DIGIT,0,56,7,3,6,7,7,7,9,3,4,7,4,2,8,8,7,5,7,5,5,right,7,9,665,x,x,334
536,1,23,female,4,DIGIT,0,57,3,5,3,8,5,8,9,4,7,9,2,6,8,4,7,9,6,3,7,left,11,7,665,x,z,334
537,1,23,female,4,DIGIT,0,58,8,6,3,7,9,7,3,5,6,9,3,4,7,3,5,6,9,3,9,left,17,9,665,x,z,334
538,1,23,female,4,DIGIT,0,59,7,3,3,7,7,3,9,7,2,3,8,8,6,8,9,2,5,3,11,right,16,2,665,x,x,334
539,1,23,female,4,DIGIT,0,60,5,7,3,7,3,3,9,9,3,3,2,4,4,5,9,4,9,4,5,right,11,2,665,x,x,334
540,1,23,female,4,DIGIT,0,61,5,4,5,9,5,6,7,7,7,3,4,8,5,7,7,4,7,5,7,right,14,7,665,x,x,334
541,1,23,female,4,DIGIT,0,62,7,3,3,9,7,3,3,3,6,3,8,7,8,7,5,5,9,4,9,left,13,8,665,x,z,334
542,1,23,female,4,DIGIT,0,63,7,9,9,8,9,5,9,7,9,8,6,4,4,8,8,9,9,9,3,right,5,9,665,x,x,334
543,1,23,female,4,DIGIT,0,64,9,9,5,6,5,4,3,9,2,7,7,7,6,6,7,7,5,9,5,right,12,7,665,x,x,334
544,1,23,female,4,DIGIT,0,65,3,7,9,2,3,5,9,7,8,6,2,8,6,6,6,6,9,9,11,right,14,6,665,x,x,334
545,1,23,female,4,DIGIT,0,66,9,9,5,5,5,7,2,7,2,9,8,9,7,3,8,8,9,5,3,right,10,7,665,x,x,334
546,1,23,female,4,DIGIT,0,67,3,3,9,7,5,9,9,5,2,9,4,8,2,6,4,4,7,5,7,right,9,2,665,x,x,334
547,1,23,female,4,DIGIT,0,68,3,5,5,9,2,5,9,5,8,7,5,9,2,9,7,6,9,5,3,left,5,2,665,x,z,334
548,1,23,female,4,DIGIT,0,69,9,9,3,8,3,8,9,3,7,5,6,6,6,3,3,3,8,9,9,left,13,6,665,x,z,334
549,1,23,female,4,DIGIT,0,70,3,5,5,7,5,9,8,7,5,5,8,6,6,9,9,7,4,5,7,left,15,9,665,x,z,334
550,1,23,female,4,DIGIT,0,71,7,7,3,3,8,3,7,7,7,3,4,7,6,4,7,6,5,4,9,right,14,4,665,x,x,334
551,1,23,female,4,DIGIT,0,72,5,7,7,5,9,9,7,7,5,3,8,2,2,7,3,8,3,9,7,right,8,7,665,x,x,334
552,1,23,female,4,DIGIT,0,73,2,3,5,9,2,7,9,7,2,2,4,2,4,8,7,9,9,3,7,left,11,4,665,x,z,334
553,1,23,female,4,DIGIT,0,74,4,3,7,5,9,9,3,5,9,3,4,6,6,8,9,9,7,5,10,left,18,5,665,x,z,334
554,1,23,female,4,DIGIT,0,75,7,7,9,9,2,7,9,4,7,4,6,8,4,3,8,6,9,7,7,right,8,4,665,x,x,334
555,1,23,female,4,DIGIT,0,76,7,9,3,5,7,9,6,7,5,3,8,6,5,2,7,8,3,5,7,right,9,5,665,x,x,334
556,1,23,female,4,DIGIT,0,77,5,5,5,9,3,3,5,3,6,8,7,8,6,4,5,4,9,7,5,right,8,7,665,x,x,334
557,1,23,female,4,DIGIT,0,78,7,5,9,3,9,8,7,3,9,5,4,5,4,8,7,8,5,3,5,right,9,6,665,x,x,334
558,1,23,female,4,DIGIT,0,79,2,3,9,7,3,9,9,9,9,3,2,8,6,7,7,9,2,3,5,left,6,9,665,x,z,334
559,1,23,female,4,DIGIT,0,80,5,7,9,3,3,9,3,9,8,4,9,8,7,8,6,7,5,3,11,right,16,7,665,x,x,334
560,1,23,female,4,DIGIT,0,81,9,7,5,5,7,9,7,3,9,9,2,4,8,2,2,3,5,9,7,right,8,3,665,x,x,334
561,1,23,female,4,DIGIT,0,82,9,3,5,7,3,3,5,3,2,8,4,3,3,5,3,8,3,5,3,left,11,4,665,x,z,334
562,1,23,female,4,DIGIT,0,83,9,3,5,7,6,7,3,7,3,3,4,9,8,6,5,9,3,6,11,left,18,6,665,x,z,334
563,1,23,female,4,DIGIT,0,84,3,3,3,5,7,5,5,3,5,6,2,2,3,4,9,5,9,9,7,left,13,3,665,x,z,334
564,1,23,female,4,DIGIT,0,85,5,7,7,3,3,7,7,3,6,3,4,6,6,4,2,9,3,5,7,left,13,5,665,x,z,334
565,1,23,female,4,DIGIT,0,86,5,5,9,2,3,3,5,7,9,5,5,6,6,8,7,7,9,7,7,right,13,6,665,x,x,334
566,1,23,female,4,DIGIT,0,87,7,7,7,9,9,9,9,3,7,3,2,7,7,6,5,9,3,3,7,left,13,7,665,x,z,334
567,1,23,female,4,DIGIT,0,88,3,9,8,5,5,6,4,7,4,5,2,8,9,9,6,3,5,3,9,right,12,8,665,x,x,334
568,1,23,female,4,DIGIT,0,89,9,7,7,7,3,7,7,3,6,5,7,9,2,6,6,9,5,3,9,left,12,9,665,x,z,334
569,1,23,female,4,DIGIT,0,90,7,3,8,3,5,9,3,5,5,2,8,6,8,2,7,5,5,9,5,left,6,9,665,x,z,334
570,1,23,female,4,DIGIT,0,91,7,2,3,9,7,3,7,4,2,7,4,2,6,3,7,7,9,3,3,right,6,2,665,x,x,334
571,1,23,female,4,DIGIT,0,92,3,9,3,9,9,7,3,9,8,3,6,2,4,4,7,6,5,5,3,left,7,6,665,x,z,334
572,1,23,female,4,DIGIT,0,93,5,5,9,3,6,5,5,8,4,3,2,4,4,2,3,5,9,5,5,left,11,2,665,x,z,334
573,1,23,female,4,DIGIT,0,94,7,9,3,5,7,9,3,3,2,8,9,3,2,2,7,3,7,3,11,left,14,2,665,x,z,334
574,1,23,female,4,DIGIT,0,95,6,5,9,7,3,9,3,3,6,3,8,7,7,8,7,7,5,7,7,right,13,7,665,x,x,334
575,1,23,female,4,DIGIT,0,96,7,9,7,9,7,7,9,3,8,6,7,2,6,8,3,4,7,7,9,left,16,4,665,x,z,334
576,1,23,female,4,DIGIT,0,97,9,9,7,5,3,9,2,3,6,2,3,5,4,4,3,7,7,9,7,right,13,4,665,x,x,334
577,1,23,female,4,DIGIT,0,98,8,5,9,7,8,8,3,5,2,6,2,9,6,5,2,6,5,5,3,right,6,8,665,x,x,334
578,1,23,female,4,DIGIT,0,99,7,5,7,7,5,3,3,7,4,5,6,9,5,5,8,7,7,3,5,left,13,5,665,x,z,334
579,1,23,female,4,DIGIT,0,100,7,5,7,3,5,2,9,9,8,3,8,6,7,2,3,7,9,7,7,right,11,8,665,x,x,334
580,1,23,female,4,DIGIT,0,101,5,9,9,9,5,3,5,9,3,7,4,2,5,8,2,6,9,3,9,right,11,4,665,x,x,334
581,1,23,female,4,DIGIT,0,102,5,7,3,8,7,9,4,9,3,2,6,6,8,2,9,3,5,7,9,left,12,6,665,x,z,334
582,1,23,female,4,DIGIT,0,103,5,9,5,7,5,3,5,9,7,6,8,6,8,9,2,6,5,3,5,right,11,8,665,x,x,334
583,1,23,female,4,DIGIT,0,104,5,3,9,7,5,5,5,5,9,3,4,9,7,4,7,7,5,5,5,left,13,7,665,x,z,334
584,1,23,female,4,DIGIT,0,105,5,5,5,3,7,9,3,3,5,2,8,6,5,8,3,3,4,5,7,right,12,6,665,x,x,334
585,1,23,female,4,DIGIT,0,106,7,3,7,8,9,9,8,3,7,9,4,2,7,3,5,3,3,3,7,right,10,9,665,x,x,334
586,1,23,female,4,DIGIT,0,107,3,7,7,2,9,8,7,7,7,6,5,7,3,4,8,3,3,5,7,right,8,7,665,x,x,334
587,1,23,female,4,DIGIT,0,108,7,7,3,5,9,3,4,3,3,5,7,9,6,2,6,3,9,3,7,left,14,2,665,x,z,334
588,1,23,female,4,DIGIT,0,109,3,3,9,7,7,5,4,3,3,6,8,2,4,8,3,3,3,9,7,left,14,8,665,x,z,334
589,1,23,female,4,DIGIT,0,110,3,9,3,3,3,3,9,3,7,6,6,6,4,5,3,9,9,3,10,right,18,3,665,x,x,334
590,1,23,female,4,DIGIT,0,111,9,8,9,9,6,5,7,3,6,7,2,7,7,8,9,9,2,9,7,left,9,8,665,x,z,334
591,1,23,female,4,DIGIT,0,112,5,7,2,3,5,9,5,9,8,3,6,5,2,8,9,5,7,5,7,right,12,5,665,x,x,334
592,1,23,female,4,DIGIT,0,113,7,5,7,5,5,3,5,9,4,8,6,6,6,8,9,7,5,3,5,left,12,6,665,x,z,334
593,1,23,female,4,DIGIT,0,114,5,3,7,3,3,3,6,5,3,3,4,7,3,4,2,2,2,7,3,left,10,7,665,x,z,334
594,1,23,female,4,DIGIT,0,115,9,9,3,9,5,7,9,3,9,5,5,9,8,7,4,7,3,3,5,right,10,3,665,x,x,334
595,1,23,female,4,DIGIT,0,116,5,5,5,7,7,7,3,7,9,3,8,4,4,7,7,7,8,8,7,left,9,3,665,x,z,334
596,1,23,female,4,DIGIT,0,117,9,3,7,6,6,9,3,3,5,3,5,7,3,8,9,9,5,7,7,right,10,3,665,x,x,334
597,1,23,female,4,DIGIT,0,118,9,5,9,3,3,7,7,5,6,5,9,4,3,3,6,2,5,7,7,right,15,6,665,x,x,334
598,1,23,female,4,DIGIT,0,119,9,8,7,7,3,6,9,9,3,7,2,5,4,2,7,8,9,7,7,right,15,7,665,x,x,334
599,1,23,female,4,DIGIT,0,120,5,9,5,5,5,4,7,5,3,4,4,8,6,2,4,5,6,9,5,left,13,6,665,x,z,334
600,1,23,female,4,DIGIT,0,121,3,9,5,9,9,7,3,7,9,4,4,2,9,5,3,7,9,5,7,left,12,2,665,x,z,334
601,1,23,female,4,DIGIT,0,122,9,3,5,9,5,9,9,9,9,8,3,7,2,5,9,4,5,9,9,right,13,6,665,x,x,334
602,1,23,female,4,DIGIT,0,123,9,3,9,7,9,5,3,5,8,4,7,3,2,2,5,7,9,3,7,right,14,2,665,x,x,334
603,1,23,female,4,DIGIT,0,124,9,5,8,7,9,7,3,3,4,9,2,7,7,4,9,3,9,5,7,right,10,9,665,x,x,334
604,1,23,female,4,DIGIT,0,125,3,3,9,3,7,9,2,3,6,4,7,9,5,2,4,5,9,9,5,left,10,5,665,x,z,334
605,1,23,female,4,DIGIT,0,126,3,7,7,9,9,3,5,5,9,5,2,4,4,2,9,9,3,3,11,right,12,2,665,x,x,334
606,1,23,female,4,DIGIT,0,127,4,9,3,5,2,7,9,8,2,6,7,6,4,5,9,2,5,5,3,left,10,6,665,x,z,334
607,1,23,female,4,DIGIT,0,128,3,6,7,5,9,6,6,5,2,7,7,8,3,4,5,3,3,7,5,left,9,2,665,x,z,334
608,1,23,female,4,DIGIT,0,129,5,3,7,9,9,3,2,5,3,4,8,8,4,8,3,9,3,5,3,left,9,3,665,x,z,334
609,1,23,female,4,DIGIT,0,130,5,9,9,9,9,3,5,3,2,6,9,7,2,2,4,4,5,3,9,left,15,7,665,x,z,334
610,1,23,female,4,DIGIT,0,131,3,5,3,7,8,7,7,3,4,7,4,3,8,4,3,7,4,7,7,left,9,4,665,x,z,334
611,1,23,female,4,DIGIT,0,132,5,2,2,9,2,5,7,7,7,3,8,2,5,5,3,9,9,3,7,left,8,7,665,x,z,334
612,1,23,female,4,DIGIT,0,133,3,9,5,5,7,2,5,9,9,7,2,8,8,2,7,9,7,9,3,left,10,7,665,x,z,334
613,1,23,female,4,DIGIT,0,134,6,5,7,7,9,3,8,7,5,9,9,7,2,6,2,7,5,9,11,right,17,5,665,x,x,334
614,1,23,female,4,DIGIT,0,135,5,5,9,7,7,7,5,9,5,8,3,6,6,2,7,9,3,5,9,right,16,9,665,x,x,334
615,1,23,female,4,DIGIT,0,136,5,5,3,5,9,5,3,9,8,7,8,7,9,4,9,3,5,9,3,right,6,5,665,x,x,334
616,1,23,female,4,DIGIT,0,137,5,9,5,9,5,9,5,5,7,5,3,4,8,4,7,5,9,7,7,left,9,7,665,x,z,334
617,1,23,female,4,DIGIT,0,138,9,3,3,7,5,3,3,7,4,5,5,6,2,2,7,5,8,3,9,left,10,5,665,x,z,334
618,1,23,female,4,DIGIT,0,139,5,3,5,8,5,5,3,9,6,8,8,6,6,9,3,9,7,4,3,left,9,6,665,x,z,334
619,1,23,female,4,DIGIT,0,140,7,9,5,9,3,7,7,5,5,9,8,5,5,6,3,8,3,5,7,left,8,5,665,x,z,334
620,1,23,female,4,DIGIT,0,141,9,9,3,8,3,3,7,9,5,6,8,6,2,6,5,6,7,7,7,right,14,6,665,x,x,334
621,1,23,female,4,DIGIT,0,142,5,2,5,6,9,3,8,3,5,9,7,2,8,7,8,3,4,3,7,left,15,8,665,x,z,334
622,1,23,female,4,DIGIT,0,143,9,6,3,5,5,4,7,3,8,3,6,7,4,8,6,6,3,5,7,left,9,8,665,x,z,334
623,1,23,female,4,DIGIT,0,144,5,9,3,7,3,9,3,7,8,5,7,2,4,9,6,8,5,9,11,right,13,9,665,x,x,334
624,1,23,female,4,DIGIT,0,145,5,3,3,5,5,5,9,3,8,4,4,4,2,4,2,3,6,7,7,left,14,4,665,x,z,334
625,1,23,female,4,DIGIT,0,146,7,5,3,3,4,3,6,9,6,7,6,9,8,5,7,9,7,3,11,right,17,6,665,x,x,334
626,1,23,female,4,DIGIT,0,147,7,7,3,3,8,5,3,3,6,2,2,4,4,8,9,7,5,6,7,right,11,2,665,x,x,334
627,1,23,female,4,DIGIT,0,148,8,5,3,5,5,7,7,7,6,7,4,8,4,9,7,7,3,9,3,left,5,5,665,x,z,334
628,1,23,female,4,DIGIT,0,149,3,9,8,3,3,8,3,9,7,5,2,4,6,5,4,3,9,3,5,left,8,9,665,x,z,334
629,1,23,female,4,DIGIT,0,150,9,7,3,7,3,5,3,9,7,7,6,6,5,8,9,9,5,3,7,left,11,6,665,x,z,334
630,1,23,female,4,DIGIT,0,151,7,5,9,7,4,5,5,3,3,7,9,6,6,5,9,9,5,2,9,left,12,6,665,x,z,334
631,1,23,female,4,DIGIT,0,152,5,3,3,2,9,7,3,5,9,3,2,7,6,9,9,9,3,7,10,left,18,7,665,x,z,334
632,1,23,female,4,DIGIT,0,153,4,7,7,7,3,5,9,9,2,9,2,2,3,6,3,4,3,3,11,right,18,3,665,x,x,334
633,1,23,female,4,DIGIT,0,154,7,9,3,6,5,5,9,5,5,2,2,7,8,7,3,6,3,7,7,left,14,7,665,x,z,334
634,1,23,female,4,DIGIT,0,155,9,5,9,9,7,3,7,9,6,5,4,6,4,6,4,9,7,8,7,left,12,4,665,x,z,334
635,1,23,female,4,DIGIT,0,156,7,9,5,7,7,3,9,9,9,5,9,9,9,7,6,9,9,7,3,left,9,3,665,x,z,334
636,1,23,female,4,DIGIT,0,157,9,9,3,5,3,3,9,6,4,9,2,2,9,6,6,7,3,2,5,right,8,7,665,x,x,334
637,1,23,female,4,DIGIT,0,158,5,9,7,3,9,3,7,9,9,2,9,8,8,8,3,4,3,5,9,left,10,2,665,x,z,334
638,1,23,female,4,DIGIT,0,159,5,6,5,5,6,7,5,7,9,7,8,7,6,9,3,3,3,3,7,right,9,2,665,x,x,334
639,1,23,female,4,DIGIT,0,160,3,5,5,5,9,7,4,7,7,2,9,3,6,3,7,3,2,9,11,left,13,6,665,x,z,334
640,1,23,female,4,DIGIT,0,161,7,7,9,3,3,7,3,9,5,3,4,7,7,5,9,7,7,7,5,left,6,7,665,x,z,334
641,1,23,female,4,DIGIT,0,162,3,6,5,9,9,7,9,7,8,7,9,6,4,3,8,9,3,4,3,right,8,7,665,x,x,334
642,1,23,female,4,DIGIT,0,163,3,8,5,3,9,9,6,9,9,2,6,8,2,2,8,7,9,9,3,right,6,9,665,x,x,334
643,1,23,female,4,DIGIT,0,164,9,5,7,7,7,3,9,7,9,3,8,8,3,4,9,8,5,5,11,left,15,9,665,x,z,334
644,1,23,female,4,DIGIT,0,165,3,9,9,9,7,4,9,6,7,7,9,7,9,3,5,2,9,7,5,right,9,7,665,x,x,334
645,1,23,female,4,DIGIT,0,166,3,7,9,3,5,9,6,9,8,4,7,5,8,3,5,9,3,9,5,right,10,7,665,x,x,334
646,1,23,female,4,DIGIT,0,167,9,7,3,3,3,9,5,5,5,3,2,3,6,5,8,4,3,5,9,right,15,8,665,x,x,334
647,1,23,female,4,DIGIT,0,168,3,7,7,3,7,2,5,4,4,6,8,6,4,6,9,9,3,3,7,left,13,4,665,x,z,334
648,1,23,female,4,DIGIT,0,169,7,3,5,7,3,5,3,4,3,5,4,4,4,4,3,7,3,7,3,left,7,7,665,x,z,334
649,1,23,female,4,DIGIT,0,170,3,6,3,9,5,3,9,4,6,3,4,5,4,2,3,9,9,8,3,left,10,3,665,x,z,334
650,1,23,female,4,DIGIT,0,171,9,7,4,5,5,3,7,3,2,8,5,2,5,6,7,2,3,9,9,right,16,2,665,x,x,334
651,1,23,female,4,DIGIT,0,172,3,9,3,7,3,5,5,3,5,5,4,4,7,8,3,7,5,5,7,right,9,5,665,x,x,334
652,1,23,female,4,DIGIT,0,173,5,9,3,3,8,5,7,8,2,7,5,3,6,5,6,9,3,9,9,right,15,6,665,x,x,334
653,1,23,female,4,DIGIT,0,174,5,7,5,7,9,8,7,5,8,6,2,8,9,8,3,3,9,2,11,left,14,4,665,x,z,334
654,1,23,female,4,DIGIT,0,175,7,3,7,5,7,2,5,7,8,5,4,9,4,5,5,8,9,7,5,left,7,7,665,x,z,334
655,1,23,female,4,DIGIT,0,176,7,2,3,3,7,3,5,9,5,5,2,4,6,2,9,2,5,9,11,right,17,7,665,x,x,334
656,1,23,female,4,DIGIT,0,177,6,9,3,3,9,8,9,2,3,9,7,3,8,5,5,3,7,7,9,left,10,3,665,x,z,334
657,1,23,female,4,DIGIT,0,178,5,4,3,9,9,7,6,9,6,5,2,9,2,2,2,6,3,7,11,left,15,5,665,x,z,334
658,1,23,female,4,DIGIT,0,179,5,3,9,9,2,5,3,3,6,7,4,8,6,6,8,4,3,3,3,right,8,3,665,x,x,334
659,1,23,female,4,DIGIT,0,180,2,2,9,4,9,5,4,3,5,8,3,9,7,4,7,5,5,3,9,right,14,4,665,x,x,334
660,1,23,female,4,DIGIT,0,181,7,6,9,9,8,9,7,4,6,3,6,7,6,8,9,9,9,7,9,right,11,6,665,x,x,334
661,1,23,female,4,DIGIT,0,182,7,9,9,3,7,5,5,3,4,9,4,9,2,8,7,7,5,8,3,left,4,3,665,x,z,334
662,1,23,female,4,DIGIT,0,183,3,9,7,5,5,7,5,7,8,3,4,3,4,8,3,3,7,3,7,left,11,4,665,x,z,334
663,1,23,female,4,DIGIT,0,184,3,8,8,5,6,9,5,3,3,9,6,5,8,8,3,7,6,7,5,left,10,9,665,x,z,334
664,1,23,female,4,DIGIT,0,185,9,5,9,5,5,9,7,3,9,5,2,4,7,4,8,7,5,9,7,left,10,5,665,x,z,334
665,1,23,female,4,DIGIT,0,186,9,3,7,3,9,3,5,7,3,3,8,6,4,9,5,8,9,7,3,right,4,3,665,x,x,334
666,1,23,female,4,DIGIT,0,187,2,5,5,7,9,5,5,7,3,4,7,7,2,4,8,3,5,4,9,left,10,4,665,x,z,334
667,1,23,female,4,DIGIT,0,188,8,7,5,5,9,7,2,5,6,9,4,6,8,2,9,7,7,4,7,left,13,8,665,x,z,334
668,1,23,female,4,DIGIT,0,189,6,5,7,5,9,9,5,7,4,9,7,5,6,3,5,3,2,9,3,left,8,2,665,x,z,334
669,1,23,female,4,DIGIT,0,190,5,2,4,5,7,9,9,9,4,4,5,5,6,2,9,3,5,3,3,right,5,7,665,x,x,334
670,1,23,female,4,DIGIT,0,191,3,5,7,7,3,3,9,4,3,8,2,2,6,5,7,9,9,7,3,left,7,9,665,x,z,334
671,1,23,female,4,DIGIT,0,192,9,7,3,5,9,2,8,9,7,2,3,4,8,9,7,9,9,7,9,right,11,6,665,x,x,334
672,1,23,female,4,DIGIT,0,193,3,7,3,9,9,9,7,7,7,4,5,9,5,8,3,8,2,4,10,right,18,4,665,x,x,334
673,1,23,female,4,DIGIT,0,194,3,5,5,5,7,3,8,3,4,5,5,4,2,2,7,9,7,3,7,right,14,2,665,x,x,334
674,1,23,female,4,DIGIT,0,195,4,9,7,3,5,7,7,5,5,6,2,8,6,2,7,5,5,9,10,left,18,9,665,x,z,334
675,1,23,female,4,DIGIT,0,196,5,7,8,6,5,3,7,3,7,3,9,6,8,2,7,9,7,7,3,right,5,6,665,x,x,334
676,1,23,female,4,DIGIT,0,197,9,4,9,3,3,9,9,3,9,5,7,2,9,8,9,8,9,7,9,left,14,8,665,x,z,334
677,1,23,female,4,DIGIT,0,198,3,3,2,3,3,9,5,9,7,2,8,8,4,8,5,7,7,6,5,left,13,4,665,x,z,334
678,1,23,female,4,DIGIT,0,199,5,3,3,7,5,7,7,4,7,7,6,3,6,2,6,7,9,5,5,right,11,6,665,x,x,334
679,1,23,female,4,DIGIT,0,200,7,9,6,6,9,3,3,9,3,9,9,2,8,4,9,2,3,9,9,left,15,9,665,x,z,334
680,1,23,female,4,DIGIT,0,201,6,9,5,3,9,9,9,3,2,4,2,6,9,8,5,3,7,5,3,left,10,4,665,x,z,334
681,1,23,female,4,DIGIT,0,202,9,9,3,3,7,2,7,9,7,2,8,2,2,7,6,9,7,2,9,right,14,7,665,x,x,334
682,1,23,female,4,DIGIT,0,203,7,6,3,9,5,7,7,5,2,4,8,4,6,7,9,9,3,7,3,right,4,9,665,x,x,334
683,1,23,female,4,DIGIT,0,204,3,9,3,5,2,7,5,5,3,3,2,4,8,5,7,3,7,3,9,right,16,3,665,x,x,334
684,1,23,female,4,DIGIT,0,205,5,7,5,7,5,7,9,3,9,6,8,7,8,8,6,9,3,3,9,right,17,3,665,x,x,334
685,1,23,female,4,DIGIT,0,206,7,7,3,3,2,7,5,5,3,9,5,4,6,7,3,5,7,7,5,left,12,4,665,x,z,334
686,1,23,female,4,DIGIT,0,207,9,7,7,9,7,7,5,5,3,8,2,2,2,8,9,2,9,9,7,right,15,9,665,x,x,334
687,1,23,female,4,DIGIT,0,208,9,2,3,3,3,9,9,3,4,6,9,7,7,5,3,7,9,7,5,right,11,9,665,x,x,334
688,1,23,female,4,DIGIT,0,209,7,4,7,9,3,3,7,9,9,9,7,7,6,9,7,9,7,9,7,right,8,9,665,x,x,334
689,1,23,female,4,DIGIT,0,210,6,7,9,5,7,5,7,3,4,8,4,5,6,6,3,9,7,9,7,left,11,4,665,x,z,334
690,1,23,female,4,DIGIT,0,211,3,7,3,8,3,9,3,9,9,4,4,8,4,3,9,7,7,3,9,right,12,6,665,x,x,334
691,1,23,female,4,DIGIT,0,212,6,5,2,9,3,3,2,3,7,8,8,4,4,3,2,6,5,2,9,right,12,4,665,x,x,334
692,1,23,female,4,DIGIT,0,213,7,9,7,5,5,9,3,6,2,6,7,7,2,3,6,9,7,5,3,right,4,5,665,x,x,334
693,1,23,female,4,DIGIT,0,214,3,3,4,7,3,7,7,5,4,2,9,6,4,2,7,9,9,3,9,left,10,2,665,x,z,334
694,1,23,female,4,DIGIT,0,215,9,3,3,9,3,9,5,7,3,9,7,4,6,2,2,7,9,7,7,left,15,2,665,x,z,334
695,1,23,female,4,DIGIT,0,216,3,3,5,4,3,3,7,7,6,2,3,3,8,7,9,5,9,9,3,left,11,3,665,x,z,334
696,1,23,female,4,DIGIT,0,217,9,8,9,8,9,3,5,7,2,7,8,9,4,7,3,9,3,3,3,right,11,8,665,x,x,334
697,1,23,female,4,DIGIT,0,218,3,7,5,5,3,8,9,7,3,8,7,5,5,8,9,8,7,7,7,right,12,3,665,x,x,334
698,1,23,female,4,DIGIT,0,219,2,7,5,9,9,9,3,7,9,5,6,7,4,2,9,6,6,5,9,right,16,6,665,x,x,334
699,1,23,female,4,DIGIT,0,220,3,7,3,9,3,3,9,5,6,9,8,4,4,2,4,2,5,5,3,right,7,3,665,x,x,334
700,1,23,female,4,DIGIT,0,221,7,7,5,5,3,9,5,3,9,3,2,6,6,6,4,7,5,7,9,right,13,6,665,x,x,334
701,1,23,female,4,DIGIT,0,222,3,5,7,6,7,3,7,5,7,3,4,7,6,2,4,5,9,9,5,right,9,7,665,x,x,334
702,1,23,female,4,DIGIT,0,223,5,5,9,9,6,9,9,5,3,7,8,9,7,8,7,9,5,9,5,right,8,5,665,x,x,334
703,1,23,female,4,DIGIT,0,224,3,9,7,7,7,5,5,9,9,5,7,4,6,4,9,6,7,9,7,right,8,2,665,x,z,334
704,1,23,female,4,DIGIT,0,225,9,6,3,7,3,9,9,5,3,5,6,9,5,5,5,6,7,5,7,right,12,9,665,x,x,334
705,1,23,female,4,DIGIT,0,226,9,5,7,9,3,3,7,9,3,9,2,2,4,6,7,8,3,7,5,left,10,3,665,x,z,334
706,1,23,female,4,DIGIT,0,227,7,5,6,5,3,9,9,8,2,7,9,6,7,9,5,9,5,7,5,left,8,8,665,x,z,334
707,1,23,female,4,DIGIT,0,228,5,2,3,9,9,5,7,5,4,8,2,9,4,4,2,3,5,8,3,left,8,5,665,x,z,334
708,1,23,female,4,DIGIT,0,229,3,9,5,3,5,5,3,3,9,8,2,7,6,5,3,4,9,6,7,left,15,3,665,x,z,334
709,1,23,female,4,DIGIT,0,230,3,3,2,5,7,8,7,6,6,5,8,6,2,3,4,7,3,7,7,right,15,4,665,x,x,334
710,1,23,female,4,DIGIT,0,231,7,9,3,5,2,5,5,4,5,4,3,7,4,9,8,2,6,9,11,right,12,7,665,x,x,334
711,1,23,female,4,DIGIT,0,232,3,9,5,6,5,9,9,3,8,6,7,9,4,2,6,3,2,7,3,left,8,7,665,x,z,334
712,1,23,female,4,DIGIT,0,233,5,4,3,3,7,7,3,9,6,7,8,2,4,5,9,6,3,5,7,right,11,8,665,x,x,334
713,1,23,female,4,DIGIT,0,234,3,3,5,9,7,7,8,7,9,6,3,4,6,9,3,3,9,7,3,left,11,3,665,x,z,334
714,1,23,female,4,DIGIT,0,235,7,5,9,6,9,7,5,7,7,5,7,8,5,2,5,9,3,3,5,left,10,5,665,x,z,334
715,1,23,female,4,DIGIT,0,236,7,9,9,5,7,6,7,7,9,8,2,5,8,4,7,8,5,7,3,left,10,8,665,x,z,334
716,1,23,female,4,DIGIT,0,237,7,5,9,7,9,6,9,3,2,6,2,2,2,2,9,8,9,9,3,left,11,2,665,x,z,334
717,1,23,female,4,DIGIT,0,238,3,3,7,5,3,9,5,7,2,4,2,2,6,9,5,2,5,9,5,left,9,8,665,x,z,334
718,1,23,female,4,DIGIT,0,239,9,3,7,7,2,8,7,7,8,7,2,8,9,9,3,6,9,3,7,left,10,6,665,x,x,334
719,1,23,female,4,DIGIT,0,240,7,5,7,3,9,3,9,2,3,2,2,3,8,4,2,6,3,5,9,right,16,6,665,x,x,334
720,1,23,female,5,DIGIT,0,1,3,8,9,5,3,2,5,6,6,5,2,6,3,2,7,7,9,3,11,right,13,3,665,x,x,334
721,1,23,female,5,DIGIT,0,2,9,3,5,3,7,3,5,7,5,3,6,9,7,3,5,9,5,3,7,left,14,3,665,x,z,334
722,1,23,female,5,DIGIT,0,3,3,3,3,5,3,3,3,5,3,5,8,8,2,3,7,8,9,9,7,left,15,7,665,x,z,334
723,1,23,female,5,DIGIT,0,4,2,9,7,9,9,9,9,8,9,3,6,8,2,7,8,6,5,6,7,left,15,8,665,x,z,334
724,1,23,female,5,DIGIT,0,5,6,7,9,4,5,3,5,3,5,5,2,3,6,4,9,3,8,7,9,right,11,7,665,x,x,334
725,1,23,female,5,DIGIT,0,6,7,3,9,5,7,5,7,7,3,8,6,6,6,5,8,7,3,5,7,right,12,6,665,x,x,334
726,1,23,female,5,DIGIT,0,7,7,5,9,7,3,3,5,3,5,5,9,5,2,4,6,8,3,5,5,right,12,5,665,x,x,334
727,1,23,female,5,DIGIT,0,8,3,3,7,3,3,9,3,9,3,2,4,6,8,7,9,2,9,5,3,right,8,2,665,x,x,334
728,1,23,female,5,DIGIT,0,9,9,3,7,5,7,9,3,3,5,4,2,9,6,9,4,9,9,3,5,right,11,2,665,x,x,334
729,1,23,female,5,DIGIT,0,10,3,9,9,3,3,9,3,5,9,3,9,6,3,2,5,4,9,3,7,left,10,5,665,x,z,334
730,1,23,female,5,DIGIT,0,11,9,3,7,3,2,5,7,7,7,8,6,8,6,8,5,3,9,5,7,right,14,8,665,x,x,334
731,1,23,female,5,DIGIT,0,12,5,5,9,5,9,5,2,9,7,3,7,4,9,5,9,5,3,5,3,right,11,7,665,x,x,334
732,1,23,female,5,DIGIT,0,13,7,3,5,9,9,3,4,2,4,3,6,9,2,8,8,5,7,5,9,right,11,6,665,x,x,334
733,1,23,female,5,DIGIT,0,14,7,8,9,6,5,4,8,7,4,7,2,7,6,5,5,3,2,9,9,right,13,6,665,x,x,334
734,1,23,female,5,DIGIT,0,15,2,7,4,3,9,2,3,4,9,9,6,2,8,5,5,3,5,9,11,right,14,9,665,x,x,334
735,1,23,female,5,DIGIT,0,16,3,7,7,6,5,7,5,3,3,6,4,9,6,7,6,3,5,3,11,right,12,9,665,x,x,334
736,1,23,female,5,DIGIT,0,17,5,5,6,5,5,9,3,5,3,9,4,4,6,8,9,5,5,9,7,right,13,6,665,x,x,334
737,1,23,female,5,DIGIT,0,18,9,7,3,9,5,5,9,9,5,4,5,7,6,7,7,9,9,3,11,left,15,7,665,x,z,334
738,1,23,female,5,DIGIT,0,19,7,3,3,5,3,9,7,7,5,8,3,8,8,5,9,9,3,9,7,left,12,8,665,x,z,334
739,1,23,female,5,DIGIT,0,20,5,7,9,5,9,9,3,9,3,8,5,7,5,2,3,7,3,5,7,left,13,5,665,x,z,334
740,1,23,female,5,DIGIT,0,21,7,6,2,3,2,9,3,3,4,9,5,6,2,2,7,4,7,3,5,left,7,8,665,x,z,334
741,1,23,female,5,DIGIT,0,22,5,7,5,3,4,3,7,3,3,9,2,8,7,5,6,3,7,3,9,right,11,2,665,x,x,334
742,1,23,female,5,DIGIT,0,23,9,7,5,9,3,9,6,8,2,7,5,6,4,4,9,7,9,7,11,right,13,4,665,x,x,334
743,1,23,female,5,DIGIT,0,24,9,3,9,3,5,3,3,5,5,4,8,7,4,8,5,7,7,5,11,right,13,9,665,x,x,334
744,1,23,female,5,DIGIT,0,25,3,9,3,7,5,5,9,3,9,7,3,3,7,8,7,5,5,7,5,left,7,9,665,x,z,334
745,1,23,female,5,DIGIT,0,26,7,9,3,3,5,8,9,3,7,7,2,8,5,4,5,7,7,2,7,right,10,7,665,x,x,334
746,1,23,female,5,DIGIT,0,27,3,4,4,7,7,4,3,3,9,9,5,9,6,4,6,5,7,9,5,left,9,9,665,x,z,334
747,1,23,female,5,DIGIT,0,28,5,5,5,5,7,5,3,7,3,5,6,3,6,2,9,4,7,8,11,right,17,7,665,x,x,334
748,1,23,female,5,DIGIT,0,29,7,8,4,4,5,7,7,5,6,3,5,5,2,2,7,5,8,3,9,right,16,5,665,x,x,334
749,1,23,female,5,DIGIT,0,30,8,5,5,3,3,3,3,5,8,8,8,2,3,7,7,8,3,7,11,right,18,7,665,x,x,334
750,1,23,female,5,DIGIT,0,31,8,5,5,8,3,7,9,9,3,2,4,8,7,4,4,3,9,3,7,left,11,6,665,x,x,334
751,1,23,female,5,DIGIT,0,32,6,9,5,2,9,5,9,7,7,7,5,4,4,5,9,2,3,5,7,left,11,5,665,x,z,334
752,1,23,female,5,DIGIT,0,33,3,3,9,3,5,3,7,5,6,7,4,8,9,9,5,5,3,7,11,right,15,7,665,x,x,334
753,1,23,female,5,DIGIT,0,34,8,3,3,3,7,3,7,7,6,4,9,2,2,3,9,3,3,3,11,left,12,2,665,x,z,334
754,1,23,female,5,DIGIT,0,35,3,7,3,5,6,7,9,5,7,9,7,4,3,6,5,5,5,8,3,left,11,7,665,x,z,334
755,1,23,female,5,DIGIT,0,36,9,3,9,6,5,5,9,3,2,5,6,9,6,7,2,8,7,5,5,left,9,2,665,x,z,334
756,1,23,female,5,DIGIT,0,37,9,9,3,8,9,5,9,3,9,6,8,8,8,8,4,6,3,9,11,right,12,8,665,x,x,334
757,1,23,female,5,DIGIT,0,38,3,7,3,5,9,9,5,9,7,3,3,2,3,8,9,3,5,3,3,left,6,9,665,x,z,334
758,1,23,female,5,DIGIT,0,39,7,7,8,5,5,9,9,3,5,8,4,4,6,2,5,6,3,5,9,right,12,4,665,x,x,334
759,1,23,female,5,DIGIT,0,40,5,5,5,5,9,7,5,5,8,7,6,3,4,2,7,9,7,5,11,left,17,7,665,x,z,334
760,1,23,female,5,DIGIT,0,41,9,9,5,9,5,3,9,5,7,3,8,5,6,4,2,8,7,9,3,left,11,8,665,x,z,334
761,1,23,female,5,DIGIT,0,42,5,7,3,9,5,5,5,3,4,3,9,2,4,6,5,7,9,7,7,right,11,9,665,x,x,334
762,1,23,female,5,DIGIT,0,43,9,5,6,9,9,9,7,3,8,6,2,9,3,2,3,5,7,3,3,left,6,9,665,x,z,334
763,1,23,female,5,DIGIT,0,44,9,5,5,9,3,9,5,7,3,7,8,5,3,3,4,3,8,9,10,left,18,9,665,x,z,334
764,1,23,female,5,DIGIT,0,45,7,5,6,3,9,5,9,8,3,5,7,2,4,8,9,7,7,7,7,left,8,8,665,x,z,334
765,1,23,female,5,DIGIT,0,46,3,4,3,5,9,7,7,3,9,5,6,8,8,9,7,9,7,9,7,right,13,8,665,x,x,334
766,1,23,female,5,DIGIT,0,47,3,9,3,9,7,9,3,3,4,3,8,6,9,9,5,2,9,4,7,right,15,5,665,x,x,334
767,1,23,female,5,DIGIT,0,48,5,5,9,7,4,9,7,3,7,7,8,6,6,6,8,5,9,7,9,right,14,6,665,x,x,334
768,1,23,female,5,DIGIT,0,49,4,7,9,7,3,5,5,4,6,3,9,8,4,6,9,5,3,3,7,left,14,6,665,x,z,334
769,1,23,female,5,DIGIT,0,50,3,5,5,9,3,7,3,9,9,8,4,6,4,6,5,6,7,9,3,left,5,3,665,x,z,334
770,1,23,female,5,DIGIT,0,51,2,7,8,3,9,5,7,5,9,3,9,8,4,2,5,2,3,2,7,left,14,2,665,x,z,334
771,1,23,female,5,DIGIT,0,52,6,2,5,6,3,3,9,7,5,9,3,7,2,8,2,3,3,3,9,left,13,7,665,x,z,334
772,1,23,female,5,DIGIT,0,53,7,6,3,8,5,9,8,5,9,9,2,3,4,4,3,7,6,9,7,left,8,5,665,x,z,334
773,1,23,female,5,DIGIT,0,54,6,7,9,3,9,7,5,7,3,5,5,6,3,4,5,3,4,4,7,right,8,7,665,x,x,334
774,1,23,female,5,DIGIT,0,55,7,3,7,5,9,7,7,5,5,5,6,8,8,9,5,8,3,9,7,left,8,5,665,x,z,334
775,1,23,female,5,DIGIT,0,56,7,9,3,5,9,7,8,5,4,7,9,7,6,4,7,3,2,7,11,right,17,2,665,x,x,334
776,1,23,female,5,DIGIT,0,57,6,2,3,6,9,2,7,5,7,8,9,6,7,2,2,2,3,5,11,left,12,6,665,x,z,334
777,1,23,female,5,DIGIT,0,58,7,5,7,7,5,3,9,5,2,9,4,6,6,6,6,9,7,9,7,right,13,6,665,x,x,334
778,1,23,female,5,DIGIT,0,59,5,2,6,7,5,4,7,3,8,3,6,8,4,5,9,3,3,5,11,right,12,8,665,x,x,334
779,1,23,female,5,DIGIT,0,60,3,5,5,3,5,7,9,5,3,7,4,4,8,6,5,7,3,7,7,right,10,7,665,x,x,334
780,1,23,female,5,DIGIT,0,61,7,7,4,9,9,8,3,9,7,8,8,7,9,4,3,7,3,7,11,right,13,2,665,x,x,334
781,1,23,female,5,DIGIT,0,62,7,9,7,9,6,3,7,7,5,5,2,4,5,4,8,3,6,5,7,right,10,5,665,x,x,334
782,1,23,female,5,DIGIT,0,63,7,2,3,7,4,6,5,7,9,8,6,4,9,3,3,2,5,9,9,right,11,6,665,x,x,334
783,1,23,female,5,DIGIT,0,64,9,5,7,5,5,7,3,5,6,5,5,6,7,2,4,3,9,7,7,left,15,6,665,x,z,334
784,1,23,female,5,DIGIT,0,65,5,5,9,5,3,8,9,3,3,6,2,3,4,2,6,8,9,8,11,left,14,2,665,x,z,334
785,1,23,female,5,DIGIT,0,66,5,7,9,5,3,9,3,7,5,9,2,4,9,6,9,2,5,3,3,right,7,4,665,x,x,334
786,1,23,female,5,DIGIT,0,67,7,4,6,9,9,9,3,9,5,9,8,8,5,7,3,5,7,7,7,right,8,9,665,x,x,334
787,1,23,female,5,DIGIT,0,68,7,9,5,3,3,7,3,7,5,7,9,8,3,4,6,9,3,7,5,right,10,7,665,x,x,334
788,1,23,female,5,DIGIT,0,69,5,5,4,6,3,9,7,3,3,7,8,9,7,5,3,9,4,5,3,left,4,6,665,x,z,334
789,1,23,female,5,DIGIT,0,70,5,3,9,5,5,9,7,6,5,4,3,6,2,2,3,5,5,3,7,right,14,6,665,x,x,334
790,1,23,female,5,DIGIT,0,71,5,9,7,9,3,6,7,5,9,7,7,6,7,6,3,3,5,4,10,right,18,4,665,x,x,334
791,1,23,female,5,DIGIT,0,72,9,5,7,2,7,5,7,7,9,3,5,2,4,3,2,6,5,3,5,left,11,5,665,x,z,334
792,1,23,female,5,DIGIT,0,73,5,9,6,7,7,5,9,7,5,5,6,6,5,2,4,3,5,3,7,left,12,6,665,x,z,334
793,1,23,female,5,DIGIT,0,74,5,9,4,5,5,9,3,3,3,8,7,2,5,5,8,4,7,5,3,left,11,7,665,x,z,334
794,1,23,female,5,DIGIT,0,75,9,2,2,5,9,4,3,9,4,5,2,2,2,8,7,2,7,3,7,left,9,4,665,x,z,334
795,1,23,female,5,DIGIT,0,76,3,5,6,3,5,9,3,9,9,4,7,2,3,8,9,7,4,2,9,left,11,7,665,x,z,334
796,1,23,female,5,DIGIT,0,77,5,9,9,6,7,3,9,9,3,8,7,4,7,3,3,9,7,5,7,left,12,4,665,x,z,334
797,1,23,female,5,DIGIT,0,78,5,3,9,7,5,5,5,9,5,3,3,2,8,9,7,6,2,7,7,left,12,2,665,x,z,334
798,1,23,female,5,DIGIT,0,79,7,2,5,7,3,2,9,3,3,3,5,8,5,9,4,2,7,9,7,left,10,2,665,x,z,334
799,1,23,female,5,DIGIT,0,80,5,2,7,9,3,9,3,2,3,8,8,7,7,8,9,8,3,7,3,right,4,9,665,x,x,334
800,1,23,female,5,DIGIT,0,81,9,9,2,9,7,7,3,7,9,9,7,6,8,3,3,3,2,5,5,left,9,9,665,x,z,334
801,1,23,female,5,DIGIT,0,82,7,5,3,6,6,3,2,4,9,3,4,2,8,8,4,3,7,5,3,right,11,4,665,x,x,334
802,1,23,female,5,DIGIT,0,83,9,5,9,5,5,3,7,5,5,5,2,2,6,6,8,2,5,9,7,right,11,2,665,x,x,334
803,1,23,female,5,DIGIT,0,84,3,9,3,9,8,9,2,5,4,3,5,3,4,3,5,5,5,9,7,left,15,5,665,x,z,334
804,1,23,female,5,DIGIT,0,85,9,9,3,3,9,3,5,5,4,5,2,8,9,8,2,6,5,9,9,right,17,5,665,x,x,334
805,1,23,female,5,DIGIT,0,86,5,9,7,7,9,7,5,9,9,6,4,7,3,3,9,9,5,2,5,left,7,5,665,x,z,334
806,1,23,female,5,DIGIT,0,87,3,2,8,5,7,5,2,5,3,5,5,7,9,6,2,6,6,7,5,left,10,5,665,x,z,334
807,1,23,female,5,DIGIT,0,88,8,9,7,7,9,3,7,7,9,3,6,3,6,4,3,2,3,7,7,right,9,7,665,x,z,334
808,1,23,female,5,DIGIT,0,89,3,3,7,5,9,5,7,3,7,9,4,5,2,4,9,2,3,5,11,left,14,9,665,x,z,334
809,1,23,female,5,DIGIT,0,90,4,6,7,3,7,8,7,5,2,8,6,4,6,2,4,9,3,9,5,left,9,2,665,x,z,334
810,1,23,female,5,DIGIT,0,91,5,9,6,4,5,3,7,3,7,3,8,7,4,4,3,6,5,3,7,right,14,4,665,x,x,334
811,1,23,female,5,DIGIT,0,92,3,4,3,3,9,3,3,7,6,3,2,7,4,4,6,7,9,7,5,left,7,3,665,x,z,334
812,1,23,female,5,DIGIT,0,93,7,7,3,7,4,5,5,9,9,7,7,8,4,8,5,9,3,8,7,left,9,9,665,x,z,334
813,1,23,female,5,DIGIT,0,94,7,7,7,9,5,3,5,9,9,8,6,9,3,2,3,3,3,9,10,right,18,9,665,x,x,334
814,1,23,female,5,DIGIT,0,95,5,7,7,7,7,8,9,9,3,4,8,4,7,6,5,9,3,3,3,right,8,9,665,x,x,334
815,1,23,female,5,DIGIT,0,96,5,9,3,3,3,3,7,5,5,4,9,8,4,6,7,8,5,7,7,right,15,7,665,x,x,334
816,1,23,female,5,DIGIT,0,97,5,3,9,3,7,3,3,3,6,6,2,2,2,4,9,7,5,3,3,right,4,3,665,x,x,334
817,1,23,female,5,DIGIT,0,98,5,5,4,5,3,9,9,9,7,8,2,8,2,4,7,4,7,5,11,left,16,4,665,x,z,334
818,1,23,female,5,DIGIT,0,99,7,8,3,7,9,5,3,5,7,4,8,3,3,4,5,9,2,9,11,right,17,2,665,x,x,334
819,1,23,female,5,DIGIT,0,100,3,2,7,7,5,8,5,7,2,9,4,8,8,9,9,4,9,7,11,left,13,8,665,x,z,334
820,1,23,female,5,DIGIT,0,101,3,7,4,3,8,3,3,3,5,3,8,2,5,8,9,8,9,3,7,right,9,5,665,x,x,334
821,1,23,female,5,DIGIT,0,102,4,3,5,3,2,7,3,6,9,2,4,5,4,2,4,5,5,9,3,right,5,2,665,x,x,334
822,1,23,female,5,DIGIT,0,103,7,3,5,3,7,9,4,9,6,6,4,8,2,3,3,3,9,9,7,right,12,8,665,x,x,334
823,1,23,female,5,DIGIT,0,104,9,3,3,3,7,3,3,6,7,3,9,4,7,8,6,5,7,3,11,right,12,4,665,x,x,334
824,1,23,female,5,DIGIT,0,105,7,3,6,3,7,7,9,4,7,9,2,7,6,4,6,3,3,3,11,right,17,3,665,x,x,334
825,1,23,female,5,DIGIT,0,106,5,3,9,9,9,5,9,3,9,3,5,8,9,4,5,3,7,9,9,left,13,6,665,x,z,334
826,1,23,female,5,DIGIT,0,107,7,3,6,5,7,9,3,9,7,6,3,6,3,6,3,3,9,7,3,right,9,5,665,x,x,334
827,1,23,female,5,DIGIT,0,108,3,9,7,5,7,9,7,6,5,6,5,9,3,2,8,3,3,9,9,right,10,6,665,x,x,334
828,1,23,female,5,DIGIT,0,109,5,3,7,6,7,9,3,7,5,7,4,3,5,4,3,5,3,7,5,right,6,9,665,x,x,334
829,1,23,female,5,DIGIT,0,110,9,7,5,5,7,4,7,9,6,7,4,7,7,4,5,3,5,9,7,left,15,5,665,x,z,334
830,1,23,female,5,DIGIT,0,111,2,7,4,9,3,3,7,7,2,3,7,4,5,7,5,5,2,7,9,right,14,7,665,x,x,334
831,1,23,female,5,DIGIT,0,112,3,9,7,5,5,7,5,7,2,3,8,7,4,3,3,6,7,6,9,left,17,7,665,x,z,334
832,1,23,female,5,DIGIT,0,113,9,3,4,3,5,7,7,5,5,3,9,6,2,9,3,3,7,9,5,right,11,9,665,x,x,334
833,1,23,female,5,DIGIT,0,114,7,7,7,7,5,9,5,3,9,5,6,5,8,2,9,4,9,5,7,right,15,9,665,x,x,334
834,1,23,female,5,DIGIT,0,115,3,3,9,7,9,5,6,9,5,4,2,4,2,9,2,8,5,7,7,right,8,9,665,x,x,334
835,1,23,female,5,DIGIT,0,116,3,7,3,7,7,2,9,5,9,8,2,4,2,8,5,7,3,9,11,right,14,2,665,x,x,334
836,1,23,female,5,DIGIT,0,117,9,7,9,5,9,5,3,5,9,7,8,4,4,4,5,5,7,5,9,right,12,4,665,x,x,334
837,1,23,female,5,DIGIT,0,118,9,7,6,7,7,5,9,6,5,9,2,7,8,5,9,3,3,7,9,left,15,9,665,x,z,334
838,1,23,female,5,DIGIT,0,119,3,3,5,9,7,7,9,5,8,9,2,8,4,2,7,8,9,7,7,left,8,5,665,x,z,334
839,1,23,female,5,DIGIT,0,120,9,3,7,9,3,3,5,3,9,7,8,6,7,6,5,7,5,5,7,right,15,5,665,x,x,334
840,1,23,female,5,DIGIT,0,121,5,4,3,2,7,6,5,5,7,2,7,6,5,8,2,9,5,7,7,left,8,7,665,x,z,334
841,1,23,female,5,DIGIT,0,122,5,9,4,7,9,7,7,5,2,3,8,8,6,4,7,3,9,8,9,left,12,8,665,x,z,334
842,1,23,female,5,DIGIT,0,123,9,7,3,5,3,7,5,7,7,2,6,4,6,2,7,7,7,5,7,left,13,6,665,x,z,334
843,1,23,female,5,DIGIT,0,124,5,5,3,5,9,9,7,3,3,3,2,2,2,9,8,7,7,5,9,right,12,2,665,x,x,334
844,1,23,female,5,DIGIT,0,125,3,7,7,5,3,9,3,5,5,3,4,6,5,7,2,9,3,3,5,right,12,6,665,x,x,334
845,1,23,female,5,DIGIT,0,126,9,3,5,9,9,9,2,3,9,6,4,2,2,7,3,9,5,6,11,left,13,8,665,x,z,334
846,1,23,female,5,DIGIT,0,127,5,8,9,7,9,3,9,3,9,2,4,4,4,3,7,5,9,5,10,left,18,5,665,x,z,334
847,1,23,female,5,DIGIT,0,128,4,6,9,3,6,9,5,9,8,8,3,6,5,3,5,9,3,5,3,right,8,9,665,x,x,334
848,1,23,female,5,DIGIT,0,129,7,3,9,8,2,7,5,3,6,2,4,8,4,5,3,8,7,9,7,right,14,5,665,x,x,334
849,1,23,female,5,DIGIT,0,130,3,9,3,3,7,3,9,9,9,8,8,3,5,6,7,9,7,3,5,right,9,9,665,x,x,334
850,1,23,female,5,DIGIT,0,131,9,5,9,7,3,3,9,6,5,9,6,2,6,6,3,8,9,7,9,left,13,2,665,x,z,334
851,1,23,female,5,DIGIT,0,132,7,5,7,5,3,3,3,7,8,8,9,6,8,8,3,7,2,5,11,right,13,3,665,x,x,334
852,1,23,female,5,DIGIT,0,133,9,9,2,6,7,7,3,5,4,9,4,9,2,3,7,6,3,5,9,right,11,4,665,x,x,334
853,1,23,female,5,DIGIT,0,134,7,2,9,3,5,3,5,2,4,5,5,6,3,7,3,5,7,5,7,left,9,4,665,x,z,334
854,1,23,female,5,DIGIT,0,135,2,5,7,4,6,7,3,3,5,8,4,9,4,7,5,3,9,7,5,left,11,4,665,x,z,334
855,1,23,female,5,DIGIT,0,136,3,7,3,7,7,7,5,3,5,6,9,6,7,2,4,9,9,7,11,left,18,7,665,x,z,334
856,1,23,female,5,DIGIT,0,137,3,3,9,9,7,9,9,7,3,7,5,6,4,4,9,7,3,7,9,right,14,4,665,x,x,334
857,1,23,female,5,DIGIT,0,138,3,7,9,3,3,7,5,3,5,5,5,6,7,3,9,5,6,3,9,left,16,5,665,x,z,334
858,1,23,female,5,DIGIT,0,139,5,5,7,7,3,7,9,9,6,4,9,4,8,3,5,5,8,7,7,left,15,5,665,x,z,334
859,1,23,female,5,DIGIT,0,140,7,3,9,7,3,7,9,9,5,3,8,5,7,5,3,5,9,9,3,right,6,7,665,x,x,334
860,1,23,female,5,DIGIT,0,141,9,3,3,5,7,3,3,9,6,6,4,2,3,4,9,3,5,5,9,left,10,6,665,x,z,334
861,1,23,female,5,DIGIT,0,142,7,7,9,7,9,9,2,3,2,9,2,8,4,4,2,2,6,7,9,right,10,9,665,x,x,334
862,1,23,female,5,DIGIT,0,143,9,3,5,3,7,5,9,5,7,8,7,6,8,6,9,9,3,9,5,left,9,7,665,x,z,334
863,1,23,female,5,DIGIT,0,144,7,5,3,6,7,7,9,2,3,6,7,6,8,6,4,3,7,7,11,right,16,7,665,x,x,334
864,1,23,female,5,DIGIT,0,145,4,3,9,7,7,3,3,5,9,4,8,7,2,8,5,7,9,5,5,left,8,5,665,x,z,334
865,1,23,female,5,DIGIT,0,146,2,5,5,5,7,5,9,3,3,5,6,2,7,7,7,3,7,9,5,left,6,5,665,x,z,334
866,1,23,female,5,DIGIT,0,147,3,9,3,5,5,9,7,4,7,5,7,5,2,2,7,5,5,7,7,right,13,2,665,x,x,334
867,1,23,female,5,DIGIT,0,148,3,9,3,9,5,9,9,3,2,3,2,6,8,4,4,9,9,7,7,right,13,8,665,x,x,334
868,1,23,female,5,DIGIT,0,149,2,5,3,8,3,8,7,7,4,9,6,5,5,2,3,7,9,3,7,right,10,9,665,x,x,334
869,1,23,female,5,DIGIT,0,150,3,3,9,3,8,5,3,3,5,5,6,8,7,3,8,5,8,9,3,right,7,3,665,x,x,334
870,1,23,female,5,DIGIT,0,151,3,5,9,3,9,9,8,3,7,9,4,4,4,6,3,2,3,5,7,right,15,3,665,x,x,334
871,1,23,female,5,DIGIT,0,152,2,3,5,7,7,7,5,5,3,8,6,2,3,2,7,3,5,3,7,right,9,3,665,x,x,334
872,1,23,female,5,DIGIT,0,153,5,3,9,9,7,3,7,5,3,9,7,7,6,5,9,4,5,4,9,right,12,7,665,x,x,334
873,1,23,female,5,DIGIT,0,154,3,7,5,9,9,9,9,9,6,7,7,9,5,8,3,8,3,7,7,right,8,9,665,x,x,334
874,1,23,female,5,DIGIT,0,155,3,8,9,3,8,5,9,9,8,5,2,9,5,4,2,3,9,9,7,left,12,9,665,x,z,334
875,1,23,female,5,DIGIT,0,156,3,9,7,3,5,7,7,7,5,3,4,8,9,6,5,7,9,9,5,right,6,7,665,x,x,334
876,1,23,female,5,DIGIT,0,157,7,9,7,7,7,5,3,3,7,4,6,6,5,9,9,2,9,5,7,left,10,7,665,x,z,334
877,1,23,female,5,DIGIT,0,158,9,5,7,6,3,6,9,7,9,4,5,5,7,7,7,2,6,9,5,left,6,6,665,x,z,334
878,1,23,female,5,DIGIT,0,159,7,2,7,7,5,6,7,8,7,5,7,8,8,3,3,2,3,5,9,left,15,3,665,x,z,334
879,1,23,female,5,DIGIT,0,160,9,7,7,6,7,7,3,7,5,5,4,4,6,6,3,8,3,4,7,left,11,8,665,x,z,334
880,1,23,female,5,DIGIT,0,161,3,9,3,7,7,5,7,5,3,3,8,8,5,2,9,5,5,3,3,right,8,5,665,x,x,334
881,1,23,female,5,DIGIT,0,162,5,9,5,5,9,9,3,8,2,5,5,8,2,4,2,8,3,7,11,right,16,8,665,x,x,334
882,1,23,female,5,DIGIT,0,163,9,5,4,9,5,9,9,9,3,3,6,5,6,6,5,5,3,7,9,left,14,6,665,x,z,334
883,1,23,female,5,DIGIT,0,164,5,9,3,8,9,7,7,9,4,3,6,5,4,6,5,3,5,7,7,right,14,6,665,x,x,334
884,1,23,female,5,DIGIT,0,165,6,9,5,3,9,8,7,5,3,8,8,6,3,4,5,2,5,6,7,left,8,5,665,x,z,334
885,1,23,female,5,DIGIT,0,166,5,7,3,3,5,2,7,9,3,2,2,9,5,8,8,3,9,7,7,left,12,9,665,x,z,334
886,1,23,female,5,DIGIT,0,167,3,2,7,4,5,9,9,7,9,5,8,7,6,3,9,6,7,3,3,right,11,8,665,x,x,334
887,1,23,female,5,DIGIT,0,168,7,9,9,7,7,4,9,4,2,7,2,9,7,3,2,7,5,9,5,right,12,9,665,x,x,334
888,1,23,female,5,DIGIT,0,169,7,9,5,5,9,3,5,5,5,4,8,6,4,8,7,5,7,9,7,right,9,5,665,x,x,334
889,1,23,female,5,DIGIT,0,170,5,9,8,3,3,2,3,5,5,7,4,5,4,4,6,8,3,5,5,left,10,7,665,x,z,334
890,1,23,female,5,DIGIT,0,171,7,9,3,9,3,7,5,5,7,9,8,9,7,4,9,7,3,9,3,left,8,7,665,x,z,334
891,1,23,female,5,DIGIT,0,172,5,3,2,5,8,5,2,5,5,2,8,3,2,8,8,3,9,3,5,left,11,8,665,x,z,334
892,1,23,female,5,DIGIT,0,173,7,7,9,9,3,5,5,9,9,3,4,6,4,6,8,3,7,5,3,right,4,9,665,x,x,334
893,1,23,female,5,DIGIT,0,174,9,5,7,9,9,9,3,5,5,2,8,8,8,7,4,5,5,3,9,left,12,8,665,x,z,334
894,1,23,female,5,DIGIT,0,175,3,5,7,5,4,7,7,3,5,5,5,7,8,8,5,8,5,7,7,left,14,8,665,x,z,334
895,1,23,female,5,DIGIT,0,176,5,7,7,9,5,3,7,7,9,9,8,3,7,2,5,7,9,8,3,left,7,7,665,x,z,334
896,1,23,female,5,DIGIT,0,177,4,2,5,5,8,9,3,7,5,7,7,2,4,8,4,9,3,7,7,right,13,6,665,x,x,334
897,1,23,female,5,DIGIT,0,178,3,9,9,7,9,7,7,3,7,7,5,5,4,4,7,7,7,3,7,right,14,4,665,x,x,334
898,1,23,female,5,DIGIT,0,179,5,3,5,9,5,5,5,5,7,2,8,8,4,6,3,2,5,3,5,left,9,7,665,x,z,334
899,1,23,female,5,DIGIT,0,180,5,9,3,3,5,3,7,3,7,9,8,4,6,8,8,6,7,7,5,left,10,9,665,x,z,334
900,1,23,female,5,DIGIT,0,181,5,5,6,3,7,9,5,9,6,3,9,2,4,5,7,7,3,5,5,left,13,4,665,x,z,334
901,1,23,female,5,DIGIT,0,182,5,3,7,3,7,5,3,7,3,5,6,3,7,9,4,3,9,5,3,left,10,5,665,x,z,334
902,1,23,female,5,DIGIT,0,183,7,4,7,9,5,3,7,8,5,6,5,8,4,4,7,3,5,9,9,right,13,3,665,x,x,334
903,1,23,female,5,DIGIT,0,184,3,7,3,7,3,5,5,7,5,6,9,6,6,9,2,9,9,3,3,right,10,7,665,x,x,334
904,1,23,female,5,DIGIT,0,185,5,5,9,3,6,9,8,7,9,9,2,2,9,9,6,3,9,2,11,left,14,9,665,x,z,334
905,1,23,female,5,DIGIT,0,186,5,7,3,9,5,7,7,9,5,9,2,7,9,2,5,7,5,7,11,right,15,5,665,x,x,334
906,1,23,female,5,DIGIT,0,187,7,9,5,9,5,8,6,6,8,2,6,6,6,4,7,7,7,9,7,right,11,6,665,x,x,334
907,1,23,female,5,DIGIT,0,188,3,9,9,9,3,5,5,7,3,7,7,7,7,4,4,9,3,4,9,right,16,9,665,x,x,334
908,1,23,female,5,DIGIT,0,189,5,5,5,7,7,7,7,5,9,6,4,4,2,7,8,3,7,9,7,right,11,4,665,x,x,334
909,1,23,female,5,DIGIT,0,190,9,8,5,3,5,5,7,9,9,5,8,2,4,7,8,5,3,7,7,left,8,9,665,x,z,334
910,1,23,female,5,DIGIT,0,191,5,3,9,8,8,9,9,3,2,9,2,8,9,7,4,6,4,9,5,left,12,8,665,x,z,334
911,1,23,female,5,DIGIT,0,192,8,2,3,5,5,5,7,3,8,2,8,3,3,8,6,7,3,5,7,right,15,6,665,x,x,334
912,1,23,female,5,DIGIT,0,193,5,4,7,7,7,9,9,5,5,7,2,6,8,4,8,5,3,9,11,right,14,4,665,x,x,334
913,1,23,female,5,DIGIT,0,194,3,5,3,9,5,3,7,2,5,4,5,4,3,2,8,5,9,5,5,left,7,7,665,x,z,334
914,1,23,female,5,DIGIT,0,195,9,5,5,7,3,5,3,2,8,4,9,2,8,2,3,4,9,9,9,right,15,3,665,x,x,334
915,1,23,female,5,DIGIT,0,196,7,5,3,7,5,5,3,3,8,5,2,6,2,9,5,2,5,8,7,left,10,5,665,x,z,334
916,1,23,female,5,DIGIT,0,197,7,9,7,5,5,3,9,5,8,7,7,3,6,2,7,8,7,7,9,right,16,8,665,x,x,334
917,1,23,female,5,DIGIT,0,198,5,3,5,3,5,9,5,5,6,3,6,3,2,6,2,2,9,7,7,left,11,6,665,x,z,334
918,1,23,female,5,DIGIT,0,199,7,5,5,7,9,7,6,3,7,7,2,8,8,6,3,8,3,3,7,left,12,8,665,x,z,334
919,1,23,female,5,DIGIT,0,200,9,7,6,6,9,7,5,5,4,3,2,5,4,9,8,3,7,9,3,right,8,5,665,x,x,334
920,1,23,female,5,DIGIT,0,201,5,5,3,9,9,3,7,7,5,7,8,9,2,2,3,7,9,3,9,left,16,7,665,x,z,334
921,1,23,female,5,DIGIT,0,202,5,9,3,7,9,3,3,9,4,3,8,4,8,2,9,8,8,9,5,right,11,8,665,x,x,334
922,1,23,female,5,DIGIT,0,203,6,9,2,3,7,5,7,3,2,2,5,8,5,7,6,7,5,5,7,right,12,3,665,x,x,334
923,1,23,female,5,DIGIT,0,204,3,7,2,3,5,5,9,9,2,2,7,2,8,4,9,7,9,4,7,left,9,2,665,x,z,334
924,1,23,female,5,DIGIT,0,205,7,7,9,7,9,8,9,3,9,5,4,8,2,6,3,6,5,3,9,right,16,6,665,x,x,334
925,1,23,female,5,DIGIT,0,206,7,7,3,9,5,5,9,3,7,8,3,6,8,7,5,8,7,5,3,right,10,8,665,x,x,334
926,1,23,female,5,DIGIT,0,207,3,3,5,7,2,9,5,3,7,4,6,3,6,9,5,8,5,5,9,left,15,5,665,x,z,334
927,1,23,female,5,DIGIT,0,208,5,9,5,6,9,7,8,7,5,7,4,6,8,9,8,7,9,3,5,right,13,8,665,x,x,334
928,1,23,female,5,DIGIT,0,209,3,3,7,3,3,3,5,3,2,5,6,3,9,8,5,2,3,9,5,left,12,3,665,x,z,334
929,1,23,female,5,DIGIT,0,210,9,7,6,5,3,3,5,7,9,5,3,5,8,4,3,9,7,5,9,left,11,6,665,x,z,334
930,1,23,female,5,DIGIT,0,211,3,7,7,9,6,5,4,4,3,2,4,3,6,6,9,3,3,5,11,left,17,3,665,x,z,334
931,1,23,female,5,DIGIT,0,212,7,9,3,9,5,5,5,3,4,9,4,6,2,7,7,5,7,3,7,right,14,7,665,x,x,334
932,1,23,female,5,DIGIT,0,213,3,3,9,7,3,3,7,3,9,9,6,7,8,5,9,5,5,3,7,left,14,5,665,x,z,334
933,1,23,female,5,DIGIT,0,214,9,3,6,3,9,9,9,3,5,3,9,5,3,3,2,6,5,7,5,right,10,3,665,x,x,334
934,1,23,female,5,DIGIT,0,215,5,5,7,9,7,9,4,2,5,8,9,8,4,8,3,5,3,5,11,left,15,4,665,x,z,334
935,1,23,female,5,DIGIT,0,216,9,5,9,5,3,3,3,5,6,7,2,8,3,6,5,6,9,5,3,left,6,4,665,x,z,334
936,1,23,female,5,DIGIT,0,217,5,7,9,5,5,5,5,5,2,7,3,7,3,4,6,5,6,9,3,left,11,3,665,x,z,334
937,1,23,female,5,DIGIT,0,218,3,5,7,3,5,5,7,6,8,9,4,7,9,5,8,8,9,9,7,left,15,8,665,x,z,334
938,1,23,female,5,DIGIT,0,219,3,4,9,7,5,2,9,3,6,3,4,6,7,5,8,6,7,9,7,right,13,7,665,x,x,334
939,1,23,female,5,DIGIT,0,220,5,9,7,2,3,5,5,3,5,8,6,2,7,7,5,8,7,7,5,left,8,3,665,x,z,334
940,1,23,female,5,DIGIT,0,221,3,9,7,7,7,7,5,9,9,5,7,8,4,2,9,2,6,7,9,right,13,9,665,x,x,334
941,1,23,female,5,DIGIT,0,222,3,5,5,9,8,3,5,4,6,9,7,8,7,4,7,7,7,5,5,left,8,4,665,x,z,334
942,1,23,female,5,DIGIT,0,223,3,7,2,9,5,6,7,9,7,6,4,8,4,6,5,5,9,7,9,right,10,3,665,x,x,334
943,1,23,female,5,DIGIT,0,224,2,8,5,3,8,7,5,5,2,9,6,9,4,2,9,8,7,7,9,left,15,9,665,x,z,334
944,1,23,female,5,DIGIT,0,225,9,2,2,9,5,9,4,9,8,3,6,8,7,2,6,5,5,5,11,right,15,6,665,x,x,334
945,1,23,female,5,DIGIT,0,226,9,4,5,9,9,5,3,6,4,8,4,6,4,9,8,7,3,2,7,left,13,3,665,x,x,334
946,1,23,female,5,DIGIT,0,227,3,7,9,7,3,2,6,9,8,6,7,4,8,2,7,9,8,3,9,right,12,4,665,x,x,334
947,1,23,female,5,DIGIT,0,228,9,9,7,9,5,6,3,9,3,2,7,9,6,4,9,8,4,5,7,left,13,6,665,x,z,334
948,1,23,female,5,DIGIT,0,229,7,9,7,7,3,3,7,5,6,3,5,5,5,2,4,5,5,3,7,right,12,5,665,x,x,334
949,1,23,female,5,DIGIT,0,230,3,7,9,6,5,9,7,3,2,7,4,5,7,7,9,8,5,2,11,left,14,7,665,x,z,334
950,1,23,female,5,DIGIT,0,231,7,7,9,7,7,5,5,3,9,7,5,4,3,8,8,3,5,5,7,right,15,8,665,x,x,334
951,1,23,female,5,DIGIT,0,232,5,7,5,3,9,7,7,3,2,2,9,6,4,6,5,8,5,2,7,left,15,5,665,x,z,334
952,1,23,female,5,DIGIT,0,233,4,9,7,4,5,9,3,7,6,5,8,2,4,2,9,5,3,3,7,right,14,2,665,x,x,334
953,1,23,female,5,DIGIT,0,234,8,5,5,3,7,3,3,3,7,8,8,6,6,2,5,5,7,4,5,right,11,8,665,x,x,334
954,1,23,female,5,DIGIT,0,235,3,3,5,7,3,3,5,7,8,5,6,5,9,2,5,7,7,7,7,left,10,8,665,x,z,334
955,1,23,female,5,DIGIT,0,236,7,3,9,3,5,7,3,2,8,4,9,6,4,4,2,7,5,7,3,right,4,3,665,x,x,334
956,1,23,female,5,DIGIT,0,237,7,5,7,8,9,5,5,3,5,5,9,8,4,6,6,7,5,6,11,right,16,7,665,x,x,334
957,1,23,female,5,DIGIT,0,238,5,8,7,3,4,4,7,9,3,9,8,6,7,2,9,7,3,5,3,left,10,9,665,x,z,334
958,1,23,female,5,DIGIT,0,239,3,3,9,9,9,7,3,9,8,7,8,3,4,7,4,8,9,2,7,left,9,2,665,x,z,334
959,1,23,female,5,DIGIT,0,240,3,3,7,7,4,7,4,5,3,5,3,9,4,8,5,2,7,5,7,left,11,3,665,x,z,334
960,1,23,female,6,DIGIT,0,1,3,5,3,9,5,5,7,7,5,5,6,8,9,4,5,5,9,5,9,left,13,9,665,x,z,334
961,1,23,female,6,DIGIT,0,2,9,3,9,5,5,3,3,7,5,2,9,4,2,7,9,5,3,7,5,right,7,3,665,x,x,334
962,1,23,female,6,DIGIT,0,3,5,5,5,7,9,3,3,7,3,2,8,8,4,7,3,5,7,7,7,left,14,7,665,x,z,334
963,1,23,female,6,DIGIT,0,4,5,2,7,3,5,9,3,7,8,7,8,3,8,7,3,9,3,9,7,left,11,8,665,x,z,334
964,1,23,female,6,DIGIT,0,5,3,5,7,3,9,9,9,7,7,9,6,2,6,7,7,6,9,3,3,right,10,9,665,x,x,334
965,1,23,female,6,DIGIT,0,6,3,7,3,7,9,9,9,5,3,7,3,8,2,5,8,6,3,9,3,left,5,9,665,x,z,334
966,1,23,female,6,DIGIT,0,7,5,7,5,5,6,7,3,9,9,7,2,6,5,2,7,5,9,5,9,right,16,5,665,x,x,334
967,1,23,female,6,DIGIT,0,8,5,7,3,5,5,9,3,9,3,9,4,7,5,5,6,9,3,5,7,right,13,5,665,x,x,334
968,1,23,female,6,DIGIT,0,9,7,5,7,7,7,9,7,9,4,6,5,4,3,5,3,9,3,5,5,left,12,4,665,x,z,334
969,1,23,female,6,DIGIT,0,10,6,7,9,7,3,2,5,7,8,5,5,3,2,3,8,9,5,9,7,left,15,8,665,x,z,334
970,1,23,female,6,DIGIT,0,11,9,9,9,3,8,9,9,6,9,4,2,7,3,5,8,7,9,9,11,left,18,7,665,x,z,334
971,1,23,female,6,DIGIT,0,12,2,8,9,9,9,3,9,3,8,3,4,9,8,8,3,7,7,3,5,left,6,3,665,x,z,334
972,1,23,female,6,DIGIT,0,13,3,9,9,2,3,6,7,4,2,6,8,4,8,5,7,8,3,2,5,left,6,6,665,x,z,334
973,1,23,female,6,DIGIT,0,14,7,9,5,9,7,6,5,3,4,3,8,4,8,7,9,4,9,7,3,left,7,5,665,x,z,334
974,1,23,female,6,DIGIT,0,15,5,6,7,9,7,9,5,7,8,2,8,6,8,4,7,3,5,9,7,right,13,8,665,x,x,334
975,1,23,female,6,DIGIT,0,16,7,5,8,9,7,7,5,9,5,5,4,3,5,6,7,5,7,5,9,right,16,5,665,x,x,334
976,1,23,female,6,DIGIT,0,17,7,2,3,6,5,4,5,7,7,7,7,6,3,7,7,2,3,3,9,left,12,9,665,x,z,334
977,1,23,female,6,DIGIT,0,18,3,7,9,3,9,5,3,7,5,2,4,9,5,4,5,8,9,5,7,right,12,9,665,x,x,334
978,1,23,female,6,DIGIT,0,19,5,3,7,9,3,9,8,3,3,6,2,2,4,2,3,4,3,3,11,left,14,2,665,x,z,334
979,1,23,female,6,DIGIT,0,20,3,3,9,7,5,9,7,7,5,5,2,2,4,9,6,2,7,9,3,right,6,7,665,x,x,334
980,1,23,female,6,DIGIT,0,21,7,5,5,9,4,5,5,3,2,4,4,2,8,9,5,6,3,3,3,right,4,9,665,x,x,334
981,1,23,female,6,DIGIT,0,22,3,8,9,7,5,3,9,7,9,7,6,5,7,9,5,2,3,3,7,right,15,5,665,x,x,334
982,1,23,female,6,DIGIT,0,23,5,7,5,3,9,3,7,3,9,9,7,6,5,7,3,7,2,9,7,left,14,7,665,x,z,334
983,1,23,female,6,DIGIT,0,24,5,9,3,3,3,6,3,9,9,7,2,5,7,7,6,4,2,5,7,left,12,5,665,x,z,334
984,1,23,female,6,DIGIT,0,25,9,7,3,8,3,3,9,7,6,4,4,6,8,8,7,8,9,3,7,left,13,9,665,x,z,334
985,1,23,female,6,DIGIT,0,26,7,7,8,3,7,3,9,9,2,9,4,7,3,7,9,9,2,9,3,right,5,7,665,x,x,334
986,1,23,female,6,DIGIT,0,27,9,5,3,7,9,9,5,3,3,3,9,3,4,3,9,9,3,9,9,right,16,9,665,x,x,334
987,1,23,female,6,DIGIT,0,28,2,3,9,9,9,3,7,3,5,2,8,5,2,6,2,6,3,4,3,left,8,5,665,x,z,334
988,1,23,female,6,DIGIT,0,29,9,3,4,7,3,6,9,7,8,9,4,6,3,2,7,7,5,9,11,right,18,9,665,x,x,334
989,1,23,female,6,DIGIT,0,30,3,5,2,7,3,4,9,3,3,2,7,5,5,7,9,6,5,7,3,left,11,7,665,x,z,334
990,1,23,female,6,DIGIT,0,31,9,2,9,7,5,8,5,7,3,6,7,8,2,9,3,8,3,7,5,right,9,7,665,x,x,334
991,1,23,female,6,DIGIT,0,32,3,5,9,7,9,9,3,6,2,7,2,4,8,3,9,6,6,9,3,left,10,7,665,x,z,334
992,1,23,female,6,DIGIT,0,33,5,3,4,3,5,5,9,9,7,5,3,6,6,3,7,2,3,5,7,right,15,7,665,x,x,334
993,1,23,female,6,DIGIT,0,34,8,7,5,3,3,7,9,5,3,6,8,8,4,6,2,3,4,7,7,left,8,5,665,x,z,334
994,1,23,female,6,DIGIT,0,35,4,7,9,9,3,7,5,9,3,5,7,3,2,8,7,8,3,9,3,left,7,5,665,x,z,334
995,1,23,female,6,DIGIT,0,36,3,9,5,3,2,5,5,9,3,7,3,9,8,8,9,9,3,5,11,left,13,6,665,x,z,334
996,1,23,female,6,DIGIT,0,37,9,7,7,3,3,7,7,7,5,3,9,4,8,2,4,8,9,4,7,right,10,7,665,x,x,334
997,1,23,female,6,DIGIT,0,38,3,5,7,9,7,9,3,3,5,5,5,8,2,2,7,7,9,9,11,left,12,7,665,x,x,334
998,1,23,female,6,DIGIT,0,39,3,3,4,3,7,5,3,7,5,5,7,2,8,4,5,2,7,4,7,left,11,7,665,x,z,334
999,1,23,female,6,DIGIT,0,40,5,3,7,9,5,6,9,7,2,7,5,3,2,6,4,5,2,3,11,right,15,4,665,x,x,334
1000,1,23,female,6,DIGIT,0,41,3,3,7,6,9,9,9,7,9,9,7,4,5,4,3,5,7,3,3,left,11,7,665,x,z,334
1001,1,23,female,6,DIGIT,0,42,3,7,7,9,7,3,7,9,6,3,3,5,7,3,9,3,5,5,7,left,10,6,665,x,z,334
1002,1,23,female,6,DIGIT,0,43,7,6,3,9,8,9,8,3,8,7,6,5,8,6,3,7,9,5,10,left,18,5,665,x,z,334
1003,1,23,female,6,DIGIT,0,44,5,5,3,5,9,3,3,3,2,9,2,2,7,7,3,7,9,3,7,right,9,2,665,x,x,334
1004,1,23,female,6,DIGIT,0,45,7,3,8,7,7,7,7,9,8,3,6,7,7,4,3,7,3,3,3,right,7,4,665,x,x,334
1005,1,23,female,6,DIGIT,0,46,5,9,7,7,9,7,2,9,4,3,5,2,2,4,5,8,3,7,7,right,8,9,665,x,x,334
1006,1,23,female,6,DIGIT,0,47,4,5,8,3,3,7,3,7,7,7,8,8,5,2,7,3,3,3,9,left,12,8,665,x,z,334
1007,1,23,female,6,DIGIT,0,48,7,9,4,5,5,3,5,5,5,2,5,2,6,3,3,8,5,9,7,left,9,5,665,x,z,334
1008,1,23,female,6,DIGIT,0,49,5,5,9,2,8,9,8,9,4,3,2,5,7,7,8,5,5,3,5,left,8,7,665,x,z,334
1009,1,23,female,6,DIGIT,0,50,5,5,5,5,5,5,3,7,7,5,8,6,7,6,2,9,2,7,9,right,14,7,665,x,x,334
1010,1,23,female,6,DIGIT,0,51,7,3,7,8,9,8,3,7,7,9,5,3,6,6,7,3,4,5,11,right,18,5,665,x,x,334
1011,1,23,female,6,DIGIT,0,52,9,9,5,7,3,8,7,7,4,5,2,2,6,6,2,4,7,3,9,right,14,6,665,x,x,334
1012,1,23,female,6,DIGIT,0,53,9,5,3,5,9,9,9,3,7,4,6,2,2,4,8,8,9,5,5,left,11,6,665,x,z,334
1013,1,23,female,6,DIGIT,0,54,5,5,9,7,3,7,4,9,7,4,4,6,2,7,4,3,9,9,7,left,15,4,665,x,z,334
1014,1,23,female,6,DIGIT,0,55,5,3,3,3,7,7,3,7,4,7,2,4,5,7,6,7,3,8,3,left,6,7,665,x,z,334
1015,1,23,female,6,DIGIT,0,56,5,5,3,5,5,4,7,7,9,4,6,8,3,9,7,2,3,4,7,right,8,7,665,x,x,334
1016,1,23,female,6,DIGIT,0,57,3,5,5,3,9,7,9,7,9,5,5,9,6,8,9,2,5,4,9,right,10,5,665,x,x,334
1017,1,23,female,6,DIGIT,0,58,3,7,7,3,9,5,3,7,4,6,8,4,4,7,5,5,9,7,7,left,8,7,665,x,z,334
1018,1,23,female,6,DIGIT,0,59,7,7,5,9,9,7,8,8,5,3,4,8,6,9,5,7,3,3,7,right,14,9,665,x,x,334
1019,1,23,female,6,DIGIT,0,60,5,4,3,5,7,9,7,3,3,7,4,8,3,9,9,3,7,6,3,right,6,3,665,x,x,334
1020,1,23,female,6,DIGIT,0,61,5,7,3,9,5,6,9,8,3,9,2,4,9,7,4,8,9,3,3,left,11,2,665,x,z,334
1021,1,23,female,6,DIGIT,0,62,4,2,9,9,7,3,5,4,9,5,2,4,7,4,7,2,7,5,7,right,8,4,665,x,x,334
1022,1,23,female,6,DIGIT,0,63,9,3,9,8,9,5,7,5,5,2,6,5,5,7,4,3,8,9,5,right,7,7,665,x,x,334
1023,1,23,female,6,DIGIT,0,64,7,5,9,5,5,7,3,2,2,3,5,6,8,4,9,2,5,9,7,left,13,8,665,x,z,334
1024,1,23,female,6,DIGIT,0,65,8,3,8,2,5,5,7,9,5,4,4,4,4,3,3,4,9,3,7,left,13,4,665,x,z,334
1025,1,23,female,6,DIGIT,0,66,3,7,6,3,5,7,7,3,8,5,8,3,9,5,7,2,3,3,7,right,12,3,665,x,x,334
1026,1,23,female,6,DIGIT,0,67,3,5,9,5,3,3,8,9,4,3,8,8,8,8,5,5,3,5,11,right,15,6,665,x,x,334
1027,1,23,female,6,DIGIT,0,68,5,9,3,5,3,9,2,9,8,5,8,4,7,7,7,5,7,7,3,right,7,2,665,x,x,334
1028,1,23,female,6,DIGIT,0,69,7,3,4,9,9,3,5,9,6,6,6,2,8,5,9,5,9,5,3,right,6,8,665,x,x,334
1029,1,23,female,6,DIGIT,0,70,7,5,6,3,9,5,3,7,5,9,6,6,7,4,9,4,5,8,9,left,15,9,665,x,z,334
1030,1,23,female,6,DIGIT,0,71,5,3,8,7,5,5,3,3,9,4,8,3,7,9,9,3,4,9,9,left,13,3,665,x,z,334
1031,1,23,female,6,DIGIT,0,72,5,3,3,2,9,8,7,5,7,9,2,2,6,2,7,6,7,3,7,left,12,2,665,x,z,334
1032,1,23,female,6,DIGIT,0,73,6,9,3,5,3,7,9,9,6,2,6,6,2,8,7,4,5,7,9,right,14,8,665,x,x,334
1033,1,23,female,6,DIGIT,0,74,3,7,7,9,7,5,9,5,5,3,5,9,7,4,9,3,5,5,5,left,13,7,665,x,z,334
1034,1,23,female,6,DIGIT,0,75,5,5,7,5,8,7,8,9,4,7,8,7,2,2,3,9,6,9,7,right,9,4,665,x,x,334
1035,1,23,female,6,DIGIT,0,76,5,5,9,3,5,9,9,7,6,9,9,4,4,2,9,4,5,9,11,right,16,4,665,x,x,334
1036,1,23,female,6,DIGIT,0,77,3,9,5,7,5,7,7,9,8,2,8,9,8,7,2,5,9,9,7,left,13,8,665,x,z,334
1037,1,23,female,6,DIGIT,0,78,9,7,3,7,9,7,8,6,5,9,2,3,4,5,3,9,9,7,3,right,5,9,665,x,x,334
1038,1,23,female,6,DIGIT,0,79,7,7,7,5,5,9,9,7,3,7,9,3,6,9,6,8,5,6,9,left,16,8,665,x,z,334
1039,1,23,female,6,DIGIT,0,80,7,7,9,5,9,8,9,8,2,5,8,6,8,8,7,7,7,9,11,left,15,7,665,x,z,334
1040,1,23,female,6,DIGIT,0,81,3,7,6,5,3,9,6,5,9,9,6,4,9,5,5,7,3,3,3,right,8,2,665,x,x,334
1041,1,23,female,6,DIGIT,0,82,2,9,3,7,5,9,9,9,5,6,5,2,4,4,2,2,9,4,11,left,17,7,665,x,z,334
1042,1,23,female,6,DIGIT,0,83,5,9,9,9,8,8,7,3,5,5,8,5,5,9,5,7,5,3,3,left,7,7,665,x,z,334
1043,1,23,female,6,DIGIT,0,84,7,5,4,3,9,9,7,7,4,8,3,6,5,6,5,5,9,4,9,left,13,5,665,x,z,334
1044,1,23,female,6,DIGIT,0,85,9,7,3,5,7,8,5,3,4,5,8,8,8,2,3,6,3,7,3,left,9,4,665,x,z,334
1045,1,23,female,6,DIGIT,0,86,3,5,7,9,7,3,7,5,9,3,5,5,3,3,7,3,9,7,7,right,15,7,665,x,x,334
1046,1,23,female,6,DIGIT,0,87,2,6,7,7,9,9,3,6,7,9,2,4,3,4,9,5,5,5,7,right,11,2,665,x,x,334
1047,1,23,female,6,DIGIT,0,88,3,5,9,3,9,7,5,5,3,3,3,2,5,5,2,6,4,9,3,right,11,3,665,x,x,334
1048,1,23,female,6,DIGIT,0,89,9,7,6,9,9,5,5,5,4,7,4,8,7,4,9,6,8,9,7,left,12,6,665,x,z,334
1049,1,23,female,6,DIGIT,0,90,3,5,3,2,5,3,3,7,3,8,5,6,3,4,9,6,5,7,5,right,12,6,665,x,x,334
1050,1,23,female,6,DIGIT,0,91,5,9,7,9,9,7,8,7,8,5,5,6,7,9,9,7,9,9,7,left,11,5,665,x,z,334
1051,1,23,female,6,DIGIT,0,92,2,6,3,9,5,5,5,5,8,6,5,2,4,2,6,7,7,9,7,right,14,2,665,x,x,334
1052,1,23,female,6,DIGIT,0,93,5,5,5,7,9,7,7,4,2,3,2,2,7,6,3,6,9,5,9,left,16,6,665,x,z,334
1053,1,23,female,6,DIGIT,0,94,5,2,3,6,7,9,4,7,2,3,8,6,2,6,2,6,9,9,5,left,9,4,665,x,z,334
1054,1,23,female,6,DIGIT,0,95,3,5,6,9,3,7,7,5,4,9,3,9,2,7,7,9,9,5,7,right,8,5,665,x,x,334
1055,1,23,female,6,DIGIT,0,96,3,7,9,5,9,5,5,7,7,9,7,2,4,4,2,4,5,7,7,right,11,7,665,x,x,334
1056,1,23,female,6,DIGIT,0,97,6,5,9,3,9,9,7,7,5,3,4,9,6,6,9,9,6,2,5,right,6,9,665,x,x,334
1057,1,23,female,6,DIGIT,0,98,7,3,9,5,9,9,5,5,5,6,2,6,3,9,2,6,3,3,3,left,10,6,665,x,z,334
1058,1,23,female,6,DIGIT,0,99,5,5,9,7,3,3,7,3,5,9,7,9,8,2,8,7,2,8,5,left,7,7,665,x,z,334
1059,1,23,female,6,DIGIT,0,100,9,5,5,7,9,3,7,5,9,5,8,2,2,2,9,5,7,7,7,right,12,2,665,x,x,334
1060,1,23,female,6,DIGIT,0,101,9,5,5,9,7,3,9,5,8,3,6,4,6,4,5,2,9,5,3,right,9,8,665,x,x,334
1061,1,23,female,6,DIGIT,0,102,7,7,9,3,3,7,7,5,7,8,7,2,6,6,7,9,9,3,3,left,4,3,665,x,z,334
1062,1,23,female,6,DIGIT,0,103,5,3,3,5,5,8,3,3,3,9,2,9,6,4,9,8,5,7,9,right,14,4,665,x,x,334
1063,1,23,female,6,DIGIT,0,104,7,7,7,7,2,9,7,9,6,7,7,7,6,2,5,3,9,7,3,right,6,9,665,x,x,334
1064,1,23,female,6,DIGIT,0,105,6,9,2,5,5,7,3,3,6,4,2,5,5,9,6,3,5,7,7,left,15,6,665,x,z,334
1065,1,23,female,6,DIGIT,0,106,3,7,7,3,3,6,3,3,3,4,7,2,6,4,5,7,5,9,5,right,12,2,665,x,x,334
1066,1,23,female,6,DIGIT,0,107,3,5,3,5,2,8,5,9,5,5,9,8,3,2,5,4,5,3,5,left,11,9,665,x,z,334
1067,1,23,female,6,DIGIT,0,108,5,9,7,2,5,9,5,2,5,6,6,5,4,5,8,5,3,7,3,right,6,9,665,x,x,334
1068,1,23,female,6,DIGIT,0,109,5,3,3,7,9,3,9,3,9,5,2,8,4,8,3,5,3,3,7,left,12,8,665,x,z,334
1069,1,23,female,6,DIGIT,0,110,3,9,7,3,9,3,7,8,9,7,7,2,8,8,6,5,5,9,9,left,10,7,665,x,z,334
1070,1,23,female,6,DIGIT,0,111,4,5,9,6,2,9,5,7,3,3,2,8,2,8,8,9,5,7,11,right,14,8,665,x,x,334
1071,1,23,female,6,DIGIT,0,112,5,9,7,5,3,9,3,5,5,9,9,8,9,4,3,7,7,3,7,left,13,2,665,x,z,334
1072,1,23,female,6,DIGIT,0,113,3,5,7,7,7,3,8,3,3,8,7,6,6,6,5,7,5,5,7,right,8,6,665,x,x,334
1073,1,23,female,6,DIGIT,0,114,5,7,9,2,6,8,6,5,7,8,2,8,4,2,6,8,3,3,7,left,13,4,665,x,z,334
1074,1,23,female,6,DIGIT,0,115,4,7,7,5,9,5,5,5,6,3,9,6,3,4,4,4,8,5,5,left,11,9,665,x,z,334
1075,1,23,female,6,DIGIT,0,116,7,9,5,7,3,5,3,7,6,8,4,5,8,6,2,6,7,7,5,left,13,8,665,x,z,334
1076,1,23,female,6,DIGIT,0,117,5,7,3,9,7,3,5,5,5,9,4,2,9,8,3,8,3,9,5,left,6,3,665,x,z,334
1077,1,23,female,6,DIGIT,0,118,3,5,2,3,5,5,7,3,8,8,6,2,4,5,4,5,5,5,7,right,15,4,665,x,x,334
1078,1,23,female,6,DIGIT,0,119,3,3,5,9,3,3,4,9,5,7,7,3,4,5,6,6,9,7,11,left,17,7,665,x,z,334
1079,1,23,female,6,DIGIT,0,120,5,9,2,2,3,7,3,9,6,6,3,2,3,2,8,5,3,5,9,left,11,7,665,x,z,334
1080,1,23,female,6,DIGIT,0,121,6,9,7,9,6,9,5,9,7,9,2,8,6,6,4,7,9,9,5,right,8,8,665,x,x,334
1081,1,23,female,6,DIGIT,0,122,3,3,4,3,9,9,7,5,8,7,2,7,6,9,8,5,5,3,7,right,12,7,665,x,x,334
1082,1,23,female,6,DIGIT,0,123,7,6,7,7,7,5,9,9,9,3,4,3,8,6,5,9,3,9,11,left,16,9,665,x,z,334
1083,1,23,female,6,DIGIT,0,124,3,7,3,9,7,5,7,3,5,9,8,5,6,7,7,2,9,7,3,left,5,7,665,x,z,334
1084,1,23,female,6,DIGIT,0,125,5,7,9,3,7,8,4,5,6,3,7,3,8,2,5,5,3,7,7,right,11,2,665,x,x,334
1085,1,23,female,6,DIGIT,0,126,3,3,3,7,7,9,5,5,3,6,5,7,5,4,7,7,3,3,3,right,11,5,665,x,x,334
1086,1,23,female,6,DIGIT,0,127,3,9,7,5,3,3,5,9,4,3,3,7,6,2,2,7,3,7,9,left,15,9,665,x,z,334
1087,1,23,female,6,DIGIT,0,128,9,5,5,9,3,6,3,3,3,6,9,8,3,3,2,5,3,3,11,left,16,9,665,x,z,334
1088,1,23,female,6,DIGIT,0,129,9,3,7,7,7,7,9,9,9,9,4,5,7,4,2,8,9,5,9,right,11,6,665,x,x,334
1089,1,23,female,6,DIGIT,0,130,2,7,8,5,3,5,5,9,5,9,5,9,7,6,3,5,9,5,7,left,10,7,665,x,x,334
1090,1,23,female,6,DIGIT,0,131,9,3,9,5,8,7,6,5,9,6,6,8,9,6,3,9,7,7,7,right,15,3,665,x,x,334
1091,1,23,female,6,DIGIT,0,132,7,3,3,9,7,3,8,7,7,7,2,4,4,2,5,5,3,3,9,right,17,3,665,x,x,334
1092,1,23,female,6,DIGIT,0,133,9,5,7,3,7,5,7,7,2,5,4,2,6,6,9,3,3,7,11,left,13,6,665,x,z,334
1093,1,23,female,6,DIGIT,0,134,5,9,3,9,3,6,9,9,2,2,7,8,8,3,3,2,3,2,5,right,7,9,665,x,x,334
1094,1,23,female,6,DIGIT,0,135,7,6,5,7,3,7,9,7,9,3,6,7,8,3,5,9,5,3,9,left,11,6,665,x,z,334
1095,1,23,female,6,DIGIT,0,136,5,3,7,6,5,5,9,9,2,7,2,4,7,5,8,9,5,9,7,left,12,7,665,x,x,334
1096,1,23,female,6,DIGIT,0,137,7,5,9,3,5,5,9,7,5,3,7,6,7,3,7,3,7,9,9,right,16,3,665,x,x,334
1097,1,23,female,6,DIGIT,0,138,5,3,3,5,9,5,9,3,3,5,8,8,4,6,9,5,7,5,11,right,14,8,665,x,x,334
1098,1,23,female,6,DIGIT,0,139,3,8,5,7,7,3,5,5,9,4,2,9,8,4,5,5,9,6,3,left,5,7,665,x,z,334
1099,1,23,female,6,DIGIT,0,140,5,3,3,6,7,9,7,5,2,8,7,2,4,8,6,9,3,9,5,right,9,2,665,x,x,334
1100,1,23,female,6,DIGIT,0,141,5,4,9,5,3,7,7,4,8,5,3,2,8,7,8,2,9,4,3,right,7,9,665,x,z,334
1101,1,23,female,6,DIGIT,0,142,3,3,9,9,3,7,3,5,7,3,8,8,9,2,3,5,3,2,3,left,11,8,665,x,z,334
1102,1,23,female,6,DIGIT,0,143,5,3,6,7,5,5,7,5,7,4,5,5,4,4,9,7,7,7,9,left,16,7,665,x,z,334
1103,1,23,female,6,DIGIT,0,144,9,5,5,3,3,9,3,3,9,5,9,6,3,2,7,9,5,5,5,right,10,5,665,x,x,334
1104,1,23,female,6,DIGIT,0,145,9,9,7,3,5,9,3,3,7,8,2,2,2,6,8,2,9,7,7,left,11,4,665,x,z,334
1105,1,23,female,6,DIGIT,0,146,3,7,9,3,5,9,3,5,3,3,8,5,8,2,3,3,7,2,5,left,10,3,665,x,z,334
1106,1,23,female,6,DIGIT,0,147,3,5,5,3,9,7,6,9,2,3,2,6,7,3,2,7,2,7,7,right,15,2,665,x,x,334
1107,1,23,female,6,DIGIT,0,148,3,7,3,9,3,6,9,2,7,9,2,6,4,3,6,5,3,7,7,right,10,9,665,x,x,334
